submission_id,response1,startDate,context_picture,experiment_id,picture2,correct1,question1,problems,enjoyment,item,botresponse,correct2,understand,text,condition,sentence,target,age,response,comments,picture1,response3,education,languages,sex,RT,correct3,context,trial_number,startTime,attempts,picture,question3,fairprice,question2,size,response2,trial_name
1169,humming bird,Fri Dec 06 2019 10:44:36 GMT-0500 (Eastern Standard Time),NA,28,warmup/eagle.jpg,hummingbird,This is a ,No,2,birds,Susan,eagle,yes,Please label the pictures below.,NA,NA,NA,57,NA,,warmup/colibri.jpg,birds,graduated_college,English,female,NA,birds,NA,1,1575647076567,1,NA,This is an ,1,These are both,NA,eagle,warmup1
1169,hummingbird,Fri Dec 06 2019 10:44:36 GMT-0500 (Eastern Standard Time),NA,28,warmup/eagle.jpg,hummingbird,This is a ,No,2,birds,Susan,eagle,yes,Please label the pictures below.,NA,NA,NA,57,NA,,warmup/colibri.jpg,birds,graduated_college,English,female,NA,birds,NA,1,1575647076567,2,NA,This is an ,1,These are both,NA,eagle,warmup1
1169,daisy,Fri Dec 06 2019 10:44:36 GMT-0500 (Eastern Standard Time),NA,28,warmup/peony.png,daisy,This is a ,No,2,flowers,Susan,peony,yes,Please label the pictures below.,NA,NA,NA,57,NA,,warmup/daisy.png,flowers,graduated_college,English,female,NA,flowers,NA,2,1575647076567,1,NA,This is a ,1,These are both,NA,rose,warmup1
1169,daisy,Fri Dec 06 2019 10:44:36 GMT-0500 (Eastern Standard Time),NA,28,warmup/peony.png,daisy,This is a ,No,2,flowers,Susan,peony,yes,Please label the pictures below.,NA,NA,NA,57,NA,,warmup/daisy.png,flowers,graduated_college,English,female,NA,flowers,NA,2,1575647076567,2,NA,This is a ,1,These are both,NA,peony,warmup1
1169,swordfish,Fri Dec 06 2019 10:44:36 GMT-0500 (Eastern Standard Time),NA,28,warmup/goldfish.png,swordfish,This is a ,No,2,fish,Susan,goldfish,yes,Please label the pictures below.,NA,NA,NA,57,NA,,warmup/swordfish.jpg,fishes,graduated_college,English,female,NA,fish,NA,3,1575647076567,1,NA,This is a ,1,These are both,NA,jellyfish,warmup1
1169,swordfish,Fri Dec 06 2019 10:44:36 GMT-0500 (Eastern Standard Time),NA,28,warmup/goldfish.png,swordfish,This is a ,No,2,fish,Susan,goldfish,yes,Please label the pictures below.,NA,NA,NA,57,NA,,warmup/swordfish.jpg,fishes,graduated_college,English,female,NA,fish,NA,3,1575647076567,2,NA,This is a ,1,These are both,NA,goldfish,warmup1
1169,swordfish,Fri Dec 06 2019 10:44:36 GMT-0500 (Eastern Standard Time),NA,28,warmup/goldfish.png,swordfish,This is a ,No,2,fish,Susan,goldfish,yes,Please label the pictures below.,NA,NA,NA,57,NA,,warmup/swordfish.jpg,fishes,graduated_college,English,female,NA,fish,NA,3,1575647076567,3,NA,This is a ,1,These are both,NA,goldfish,warmup1
1169,swordfish,Fri Dec 06 2019 10:44:36 GMT-0500 (Eastern Standard Time),NA,28,warmup/goldfish.png,swordfish,This is a ,No,2,fish,Susan,goldfish,yes,Please label the pictures below.,NA,NA,NA,57,NA,,warmup/swordfish.jpg,fish,graduated_college,English,female,NA,fish,NA,3,1575647076567,4,NA,This is a ,1,These are both,NA,goldfish,warmup1
1169,NA,Fri Dec 06 2019 10:44:36 GMT-0500 (Eastern Standard Time),images/fish-parade.png,28,NA,NA,That ,No,2,fish,Susan,NA,yes,You also see this one:,predicative,You say to your friend:,goldfish,57,goldfish,,NA,NA,graduated_college,English,female,,NA,You see the following:,1,1575647076567,NA,images/goldfish.png,NA,1, is small.,small,NA,main1
1169,NA,Fri Dec 06 2019 10:44:36 GMT-0500 (Eastern Standard Time),images/bird-parade2.png,28,NA,NA,That ,No,2,birds,Susan,NA,yes,You also see this one:,predicative,You say to your friend:,hummingbird,57,hummingbird,,NA,NA,graduated_college,English,female,,NA,You see the following:,2,1575647076567,NA,images/hummingbird.png,NA,1, is small.,small,NA,main1
1169,NA,Fri Dec 06 2019 10:44:36 GMT-0500 (Eastern Standard Time),images/flower-parade.png,28,NA,NA,That ,No,2,flowers,Susan,NA,yes,You also see this one:,predicative,You say to your friend:,peony,57,geony,,NA,NA,graduated_college,English,female,,NA,You see the following:,3,1575647076567,NA,images/peony.png,NA,1, is big.,big,NA,main1
1169,dandelion,Fri Dec 06 2019 10:44:36 GMT-0500 (Eastern Standard Time),NA,28,warmup/sunflower.png,dandelion,This is a ,No,2,flowers,Susan,sunflower,yes,Please label the pictures below.,NA,NA,NA,57,NA,,warmup/dandelion.jpg,flower,graduated_college,English,female,NA,flowers,NA,1,1575647076567,1,NA,This is a ,1,These are both,NA,sunflower,warmup2
1169,dandelion,Fri Dec 06 2019 10:44:36 GMT-0500 (Eastern Standard Time),NA,28,warmup/sunflower.png,dandelion,This is a ,No,2,flowers,Susan,sunflower,yes,Please label the pictures below.,NA,NA,NA,57,NA,,warmup/dandelion.jpg,flowers,graduated_college,English,female,NA,flowers,NA,1,1575647076567,2,NA,This is a ,1,These are both,NA,sunflower,warmup2
1169,puppy,Fri Dec 06 2019 10:44:36 GMT-0500 (Eastern Standard Time),NA,28,warmup/doberman.png,chihuahua,This is a ,No,2,dogs,Susan,doberman,yes,Please label the pictures below.,NA,NA,NA,57,NA,,warmup/chihuahua.jpg,dogs,graduated_college,English,female,NA,dogs,NA,2,1575647076567,1,NA,This is a ,1,These are both,NA,dog,warmup2
1169,chihuahua,Fri Dec 06 2019 10:44:36 GMT-0500 (Eastern Standard Time),NA,28,warmup/doberman.png,chihuahua,This is a ,No,2,dogs,Susan,doberman,yes,Please label the pictures below.,NA,NA,NA,57,NA,,warmup/chihuahua.jpg,dogs,graduated_college,English,female,NA,dogs,NA,2,1575647076567,2,NA,This is a ,1,These are both,NA,doberman,warmup2
1169,swan clip art,Fri Dec 06 2019 10:44:36 GMT-0500 (Eastern Standard Time),NA,28,warmup/canary.jpg,swan,This is a ,No,2,birds,Susan,canary,yes,Please label the pictures below.,NA,NA,NA,57,NA,,warmup/swan.jpg,birds,graduated_college,English,female,NA,birds,NA,3,1575647076567,1,NA,This is a ,1,These are both,NA,songbird,warmup2
1169,swan,Fri Dec 06 2019 10:44:36 GMT-0500 (Eastern Standard Time),NA,28,warmup/canary.jpg,swan,This is a ,No,2,birds,Susan,canary,yes,Please label the pictures below.,NA,NA,NA,57,NA,,warmup/swan.jpg,birds,graduated_college,English,female,NA,birds,NA,3,1575647076567,2,NA,This is a ,1,These are both,NA,canary,warmup2
1169,NA,Fri Dec 06 2019 10:44:36 GMT-0500 (Eastern Standard Time),images/bird-parade3.png,28,NA,NA,That ,No,2,birds,Susan,NA,yes,You also see this one:,predicative,You say to your friend:,canary,57,canary,,NA,NA,graduated_college,English,female,,NA,You see the following:,1,1575647076567,NA,images/canary.png,NA,1, is small.,small,NA,main2
1169,NA,Fri Dec 06 2019 10:44:36 GMT-0500 (Eastern Standard Time),images/dog-parade.png,28,NA,NA,That ,No,2,dogs,Susan,NA,yes,You also see this one:,predicative,You say to your friend:,doberman,57,dobermann,,NA,NA,graduated_college,English,female,,NA,You see the following:,2,1575647076567,NA,images/doberman.png,NA,1, is big.,big,NA,main2
1169,NA,Fri Dec 06 2019 10:44:36 GMT-0500 (Eastern Standard Time),images/flower-parade2.png,28,NA,NA,That ,No,2,flowers,Susan,NA,yes,You also see this one:,predicative,You say to your friend:,sunflower,57,sunflower,,NA,NA,graduated_college,English,female,,NA,You see the following:,3,1575647076567,NA,images/sunflower.png,NA,1, is big.,big,NA,main2
1178,marlin,Fri Dec 06 2019 10:59:56 GMT-0500 (Eastern Standard Time),NA,28,warmup/clownfish.jpg,tuna,This is a ,,2,fish,sarah,clownfish,,Please label the pictures below.,NA,NA,NA,34,NA,,warmup/tuna.jpg,fish,graduated_college,English,female,NA,fish,NA,1,1575647996106,1,NA,This is a ,1.00,These are both,NA,fish,warmup1
1178,tuna,Fri Dec 06 2019 10:59:56 GMT-0500 (Eastern Standard Time),NA,28,warmup/clownfish.jpg,tuna,This is a ,,2,fish,sarah,clownfish,,Please label the pictures below.,NA,NA,NA,34,NA,,warmup/tuna.jpg,fish,graduated_college,English,female,NA,fish,NA,1,1575647996106,2,NA,This is a ,1.00,These are both,NA,clownfish,warmup1
1178,marlin,Fri Dec 06 2019 10:59:56 GMT-0500 (Eastern Standard Time),NA,28,warmup/goldfish.png,swordfish,This is a ,,2,fish,sarah,goldfish,,Please label the pictures below.,NA,NA,NA,34,NA,,warmup/swordfish.jpg,fish,graduated_college,English,female,NA,fish,NA,2,1575647996106,1,NA,This is a ,1.00,These are both,NA,goldfish,warmup1
1178,swordfish,Fri Dec 06 2019 10:59:56 GMT-0500 (Eastern Standard Time),NA,28,warmup/goldfish.png,swordfish,This is a ,,2,fish,sarah,goldfish,,Please label the pictures below.,NA,NA,NA,34,NA,,warmup/swordfish.jpg,fish,graduated_college,English,female,NA,fish,NA,2,1575647996106,2,NA,This is a ,1.00,These are both,NA,goldfish,warmup1
1178,goose,Fri Dec 06 2019 10:59:56 GMT-0500 (Eastern Standard Time),NA,28,warmup/sparrow.jpg,goose,This is a ,,2,birds,sarah,sparrow,,Please label the pictures below.,NA,NA,NA,34,NA,,warmup/goose.png,birds,graduated_college,English,female,NA,birds,NA,3,1575647996106,1,NA,This is a ,1.00,These are both,NA,bird,warmup1
1178,goose,Fri Dec 06 2019 10:59:56 GMT-0500 (Eastern Standard Time),NA,28,warmup/sparrow.jpg,goose,This is a ,,2,birds,sarah,sparrow,,Please label the pictures below.,NA,NA,NA,34,NA,,warmup/goose.png,birds,graduated_college,English,female,NA,birds,NA,3,1575647996106,2,NA,This is a ,1.00,These are both,NA,sparrow,warmup1
1178,NA,Fri Dec 06 2019 10:59:56 GMT-0500 (Eastern Standard Time),images/fish-parade.png,28,NA,NA,That ,,2,fish,sarah,NA,,You also see this one:,predicative,You say to your friend:,swordfish,34,swordfish,,NA,NA,graduated_college,English,female,,NA,You see the following:,1,1575647996106,NA,images/swordfish.png,NA,1.00, is big.,big,NA,main1
1178,NA,Fri Dec 06 2019 10:59:56 GMT-0500 (Eastern Standard Time),images/bird-parade.png,28,NA,NA,That ,,2,birds,sarah,NA,,You also see this one:,predicative,You say to your friend:,sparrow,34,sparrow,,NA,NA,graduated_college,English,female,,NA,You see the following:,2,1575647996106,NA,images/sparrow.png,NA,1.00, is small.,small,NA,main1
1178,NA,Fri Dec 06 2019 10:59:56 GMT-0500 (Eastern Standard Time),images/fish-parade2.png,28,NA,NA,That ,,2,fish,sarah,NA,,You also see this one:,predicative,You say to your friend:,tuna,34,tuna,,NA,NA,graduated_college,English,female,,NA,You see the following:,3,1575647996106,NA,images/tuna.png,NA,1.00, is big.,big,NA,main1
1178,daisy,Fri Dec 06 2019 10:59:56 GMT-0500 (Eastern Standard Time),NA,28,warmup/peony.png,daisy,This is a ,,2,flowers,sarah,peony,,Please label the pictures below.,NA,NA,NA,34,NA,,warmup/daisy.png,flowers,graduated_college,English,female,NA,flowers,NA,1,1575647996106,1,NA,This is a ,1.00,These are both,NA,petunia,warmup2
1178,daisy,Fri Dec 06 2019 10:59:56 GMT-0500 (Eastern Standard Time),NA,28,warmup/peony.png,daisy,This is a ,,2,flowers,sarah,peony,,Please label the pictures below.,NA,NA,NA,34,NA,,warmup/daisy.png,flowers,graduated_college,English,female,NA,flowers,NA,1,1575647996106,2,NA,This is a ,1.00,These are both,NA,peony,warmup2
1178,sparrow,Fri Dec 06 2019 10:59:56 GMT-0500 (Eastern Standard Time),NA,28,warmup/eagle.jpg,hummingbird,This is a ,,2,birds,sarah,eagle,,Please label the pictures below.,NA,NA,NA,34,NA,,warmup/colibri.jpg,birds,graduated_college,English,female,NA,birds,NA,2,1575647996106,1,NA,This is an ,1.00,These are both,NA,eagle,warmup2
1178,hummingbird,Fri Dec 06 2019 10:59:56 GMT-0500 (Eastern Standard Time),NA,28,warmup/eagle.jpg,hummingbird,This is a ,,2,birds,sarah,eagle,,Please label the pictures below.,NA,NA,NA,34,NA,,warmup/colibri.jpg,birds,graduated_college,English,female,NA,birds,NA,2,1575647996106,2,NA,This is an ,1.00,These are both,NA,eagle,warmup2
1178,dog,Fri Dec 06 2019 10:59:56 GMT-0500 (Eastern Standard Time),NA,28,warmup/doberman.png,chihuahua,This is a ,,2,dogs,sarah,doberman,,Please label the pictures below.,NA,NA,NA,34,NA,,warmup/chihuahua.jpg,dogs,graduated_college,English,female,NA,dogs,NA,3,1575647996106,1,NA,This is a ,1.00,These are both,NA,rotweiler,warmup2
1178,chihuahua,Fri Dec 06 2019 10:59:56 GMT-0500 (Eastern Standard Time),NA,28,warmup/doberman.png,chihuahua,This is a ,,2,dogs,sarah,doberman,,Please label the pictures below.,NA,NA,NA,34,NA,,warmup/chihuahua.jpg,dogs,graduated_college,English,female,NA,dogs,NA,3,1575647996106,2,NA,This is a ,1.00,These are both,NA,doberman,warmup2
1178,NA,Fri Dec 06 2019 10:59:56 GMT-0500 (Eastern Standard Time),images/bird-parade2.png,28,NA,NA,That ,,2,birds,sarah,NA,,You also see this one:,predicative,You say to your friend:,hummingbird,34,hummingbird,,NA,NA,graduated_college,English,female,,NA,You see the following:,1,1575647996106,NA,images/hummingbird.png,NA,1.00, is small.,small,NA,main2
1178,NA,Fri Dec 06 2019 10:59:56 GMT-0500 (Eastern Standard Time),images/flower-parade.png,28,NA,NA,That ,,2,flowers,sarah,NA,,You also see this one:,predicative,You say to your friend:,peony,34,peony,,NA,NA,graduated_college,English,female,,NA,You see the following:,2,1575647996106,NA,images/peony.png,NA,1.00, is big.,big,NA,main2
1178,NA,Fri Dec 06 2019 10:59:56 GMT-0500 (Eastern Standard Time),images/dog-parade.png,28,NA,NA,That ,,2,dogs,sarah,NA,,You also see this one:,predicative,You say to your friend:,chihuahua,34,chihuahua,,NA,NA,graduated_college,English,female,,NA,You see the following:,3,1575647996106,NA,images/chihuahua.png,NA,1.00, is small.,small,NA,main2
1184,shark,Fri Dec 06 2019 10:57:06 GMT-0500 (Eastern Standard Time),NA,28,warmup/goldfish.png,swordfish,This is a ,No,2,fish,jennifer,goldfish,,Please label the pictures below.,NA,NA,NA,,NA,Nil,warmup/swordfish.jpg,fish,,,,NA,fish,NA,1,1575647826996,1,NA,This is a ,1,These are both,NA,fish,warmup1
1184,swordfish,Fri Dec 06 2019 10:57:06 GMT-0500 (Eastern Standard Time),NA,28,warmup/goldfish.png,swordfish,This is a ,No,2,fish,jennifer,goldfish,,Please label the pictures below.,NA,NA,NA,,NA,Nil,warmup/swordfish.jpg,fish,,,,NA,fish,NA,1,1575647826996,2,NA,This is a ,1,These are both,NA,goldfish,warmup1
1184,duck,Fri Dec 06 2019 10:57:06 GMT-0500 (Eastern Standard Time),NA,28,warmup/sparrow.jpg,goose,This is a ,No,2,birds,jennifer,sparrow,,Please label the pictures below.,NA,NA,NA,,NA,Nil,warmup/goose.png,bird,,,,NA,birds,NA,2,1575647826996,1,NA,This is a ,1,These are both,NA,sparrow,warmup1
1184,goose,Fri Dec 06 2019 10:57:06 GMT-0500 (Eastern Standard Time),NA,28,warmup/sparrow.jpg,goose,This is a ,No,2,birds,jennifer,sparrow,,Please label the pictures below.,NA,NA,NA,,NA,Nil,warmup/goose.png,birds,,,,NA,birds,NA,2,1575647826996,2,NA,This is a ,1,These are both,NA,sparrow,warmup1
1184,pup,Fri Dec 06 2019 10:57:06 GMT-0500 (Eastern Standard Time),NA,28,warmup/doberman.png,chihuahua,This is a ,No,2,dogs,jennifer,doberman,,Please label the pictures below.,NA,NA,NA,,NA,Nil,warmup/chihuahua.jpg,dogs,,,,NA,dogs,NA,3,1575647826996,1,NA,This is a ,1,These are both,NA,dane,warmup1
1184,chihuahua,Fri Dec 06 2019 10:57:06 GMT-0500 (Eastern Standard Time),NA,28,warmup/doberman.png,chihuahua,This is a ,No,2,dogs,jennifer,doberman,,Please label the pictures below.,NA,NA,NA,,NA,Nil,warmup/chihuahua.jpg,dogs,,,,NA,dogs,NA,3,1575647826996,2,NA,This is a ,1,These are both,NA,doberman,warmup1
1184,NA,Fri Dec 06 2019 10:57:06 GMT-0500 (Eastern Standard Time),images/fish-parade.png,28,NA,NA,That ,No,2,fish,jennifer,NA,,You also see this one:,predicative,You say to your friend:,goldfish,,gold fish,Nil,NA,NA,,,,,NA,You see the following:,1,1575647826996,NA,images/goldfish.png,NA,1, is small.,small,NA,main1
1184,NA,Fri Dec 06 2019 10:57:06 GMT-0500 (Eastern Standard Time),images/dog-parade.png,28,NA,NA,That ,No,2,dogs,jennifer,NA,,You also see this one:,predicative,You say to your friend:,chihuahua,,chihua,Nil,NA,NA,,,,,NA,You see the following:,2,1575647826996,NA,images/chihuahua.png,NA,1, is small.,small,NA,main1
1184,NA,Fri Dec 06 2019 10:57:06 GMT-0500 (Eastern Standard Time),images/bird-parade.png,28,NA,NA,That ,No,2,birds,jennifer,NA,,You also see this one:,predicative,You say to your friend:,goose,,goose,Nil,NA,NA,,,,,NA,You see the following:,3,1575647826996,NA,images/goose.png,NA,1, is big.,big,NA,main1
1184,kingfisher,Fri Dec 06 2019 10:57:06 GMT-0500 (Eastern Standard Time),NA,28,warmup/eagle.jpg,hummingbird,This is a ,No,2,birds,jennifer,eagle,,Please label the pictures below.,NA,NA,NA,,NA,Nil,warmup/colibri.jpg,birds,,,,NA,birds,NA,1,1575647826996,1,NA,This is an ,1,These are both,NA,eagle,warmup2
1184,hummingbird,Fri Dec 06 2019 10:57:06 GMT-0500 (Eastern Standard Time),NA,28,warmup/eagle.jpg,hummingbird,This is a ,No,2,birds,jennifer,eagle,,Please label the pictures below.,NA,NA,NA,,NA,Nil,warmup/colibri.jpg,birds,,,,NA,birds,NA,1,1575647826996,2,NA,This is an ,1,These are both,NA,eagle,warmup2
1184,lilly,Fri Dec 06 2019 10:57:06 GMT-0500 (Eastern Standard Time),NA,28,warmup/peony.png,daisy,This is a ,No,2,flowers,jennifer,peony,,Please label the pictures below.,NA,NA,NA,,NA,Nil,warmup/daisy.png,flower,,,,NA,flowers,NA,2,1575647826996,1,NA,This is a ,1,These are both,NA,rose,warmup2
1184,daisy,Fri Dec 06 2019 10:57:06 GMT-0500 (Eastern Standard Time),NA,28,warmup/peony.png,daisy,This is a ,No,2,flowers,jennifer,peony,,Please label the pictures below.,NA,NA,NA,,NA,Nil,warmup/daisy.png,flowers,,,,NA,flowers,NA,2,1575647826996,2,NA,This is a ,1,These are both,NA,peony,warmup2
1184,tree,Fri Dec 06 2019 10:57:06 GMT-0500 (Eastern Standard Time),NA,28,warmup/bonsai.jpg,redwood|sequoia,This is a ,No,2,trees,jennifer,bonsai,,Please label the pictures below.,NA,NA,NA,,NA,Nil,warmup/sequoia.jpg,plants,,,,NA,trees,NA,3,1575647826996,1,NA,This is a ,1,These are both,NA,plant,warmup2
1184,"redwood,sequoia",Fri Dec 06 2019 10:57:06 GMT-0500 (Eastern Standard Time),NA,28,warmup/bonsai.jpg,redwood|sequoia,This is a ,No,2,trees,jennifer,bonsai,,Please label the pictures below.,NA,NA,NA,,NA,Nil,warmup/sequoia.jpg,trees,,,,NA,trees,NA,3,1575647826996,2,NA,This is a ,1,These are both,NA,bonsai,warmup2
1184,redwood,Fri Dec 06 2019 10:57:06 GMT-0500 (Eastern Standard Time),NA,28,warmup/bonsai.jpg,redwood|sequoia,This is a ,No,2,trees,jennifer,bonsai,,Please label the pictures below.,NA,NA,NA,,NA,Nil,warmup/sequoia.jpg,trees,,,,NA,trees,NA,3,1575647826996,3,NA,This is a ,1,These are both,NA,bonsai,warmup2
1184,NA,Fri Dec 06 2019 10:57:06 GMT-0500 (Eastern Standard Time),images/flower-parade.png,28,NA,NA,That ,No,2,flowers,jennifer,NA,,You also see this one:,predicative,You say to your friend:,daisy,,daisy,Nil,NA,NA,,,,,NA,You see the following:,1,1575647826996,NA,images/daisy.png,NA,1, is small.,small,NA,main2
1184,NA,Fri Dec 06 2019 10:57:06 GMT-0500 (Eastern Standard Time),images/bird-parade2.png,28,NA,NA,That ,No,2,birds,jennifer,NA,,You also see this one:,predicative,You say to your friend:,eagle,,eagle,Nil,NA,NA,,,,,NA,You see the following:,2,1575647826996,NA,images/eagle.png,NA,1, is big.,big,NA,main2
1184,NA,Fri Dec 06 2019 10:57:06 GMT-0500 (Eastern Standard Time),images/tree-parade.png,28,NA,NA,That ,No,2,trees,jennifer,NA,,You also see this one:,predicative,You say to your friend:,sequoia,,redwood,Nil,NA,NA,,,,,NA,You see the following:,3,1575647826996,NA,images/sequoia.png,NA,1, is big.,big,NA,main2
1194,puppy,Fri Dec 06 2019 10:43:35 GMT-0500 (Eastern Standard Time),NA,28,warmup/doberman.png,chihuahua,This is a ,,1,dogs,susan,doberman,,Please label the pictures below.,NA,NA,NA,56,NA,,warmup/chihuahua.jpg,dogs,graduated_high_school,English,female,NA,dogs,NA,1,1575647015219,1,NA,This is a ,1.50,These are both,NA,dog,warmup1
1194,dog,Fri Dec 06 2019 10:43:35 GMT-0500 (Eastern Standard Time),NA,28,warmup/doberman.png,chihuahua,This is a ,,1,dogs,susan,doberman,,Please label the pictures below.,NA,NA,NA,56,NA,,warmup/chihuahua.jpg,dogs,graduated_high_school,English,female,NA,dogs,NA,1,1575647015219,2,NA,This is a ,1.50,These are both,NA,dog,warmup1
1194,chihuahua,Fri Dec 06 2019 10:43:35 GMT-0500 (Eastern Standard Time),NA,28,warmup/doberman.png,chihuahua,This is a ,,1,dogs,susan,doberman,,Please label the pictures below.,NA,NA,NA,56,NA,,warmup/chihuahua.jpg,dogs,graduated_high_school,English,female,NA,dogs,NA,1,1575647015219,3,NA,This is a ,1.50,These are both,NA,doberman,warmup1
1194,dandelion,Fri Dec 06 2019 10:43:35 GMT-0500 (Eastern Standard Time),NA,28,warmup/peony.png,daisy,This is a ,,1,flowers,susan,peony,,Please label the pictures below.,NA,NA,NA,56,NA,,warmup/daisy.png,flowers,graduated_high_school,English,female,NA,flowers,NA,2,1575647015219,1,NA,This is a ,1.50,These are both,NA,flower,warmup1
1194,daisy,Fri Dec 06 2019 10:43:35 GMT-0500 (Eastern Standard Time),NA,28,warmup/peony.png,daisy,This is a ,,1,flowers,susan,peony,,Please label the pictures below.,NA,NA,NA,56,NA,,warmup/daisy.png,flowers\nflowers\nflowers,graduated_high_school,English,female,NA,flowers,NA,2,1575647015219,2,NA,This is a ,1.50,These are both,NA,peony,warmup1
1194,daisy,Fri Dec 06 2019 10:43:35 GMT-0500 (Eastern Standard Time),NA,28,warmup/peony.png,daisy,This is a ,,1,flowers,susan,peony,,Please label the pictures below.,NA,NA,NA,56,NA,,warmup/daisy.png,flowers,graduated_high_school,English,female,NA,flowers,NA,2,1575647015219,3,NA,This is a ,1.50,These are both,NA,peony,warmup1
1194,tree,Fri Dec 06 2019 10:43:35 GMT-0500 (Eastern Standard Time),NA,28,warmup/bonsai.jpg,redwood|sequoia,This is a ,,1,trees,susan,bonsai,,Please label the pictures below.,NA,NA,NA,56,NA,,warmup/sequoia.jpg,trees,graduated_high_school,English,female,NA,trees,NA,3,1575647015219,1,NA,This is a ,1.50,These are both,NA,seedling,warmup1
1194,sequia,Fri Dec 06 2019 10:43:35 GMT-0500 (Eastern Standard Time),NA,28,warmup/bonsai.jpg,redwood|sequoia,This is a ,,1,trees,susan,bonsai,,Please label the pictures below.,NA,NA,NA,56,NA,,warmup/sequoia.jpg,trees\ntrees,graduated_high_school,English,female,NA,trees,NA,3,1575647015219,2,NA,This is a ,1.50,These are both,NA,bonsai,warmup1
1194,sequ0ia,Fri Dec 06 2019 10:43:35 GMT-0500 (Eastern Standard Time),NA,28,warmup/bonsai.jpg,redwood|sequoia,This is a ,,1,trees,susan,bonsai,,Please label the pictures below.,NA,NA,NA,56,NA,,warmup/sequoia.jpg,trees\ntrees,graduated_high_school,English,female,NA,trees,NA,3,1575647015219,3,NA,This is a ,1.50,These are both,NA,bonsai,warmup1
1194,sequoia,Fri Dec 06 2019 10:43:35 GMT-0500 (Eastern Standard Time),NA,28,warmup/bonsai.jpg,redwood|sequoia,This is a ,,1,trees,susan,bonsai,,Please label the pictures below.,NA,NA,NA,56,NA,,warmup/sequoia.jpg,trees\ntrees,graduated_high_school,English,female,NA,trees,NA,3,1575647015219,4,NA,This is a ,1.50,These are both,NA,bonsai,warmup1
1194,sequoia,Fri Dec 06 2019 10:43:35 GMT-0500 (Eastern Standard Time),NA,28,warmup/bonsai.jpg,redwood|sequoia,This is a ,,1,trees,susan,bonsai,,Please label the pictures below.,NA,NA,NA,56,NA,,warmup/sequoia.jpg,trees,graduated_high_school,English,female,NA,trees,NA,3,1575647015219,5,NA,This is a ,1.50,These are both,NA,bonsai,warmup1
1194,NA,Fri Dec 06 2019 10:43:35 GMT-0500 (Eastern Standard Time),images/dog-parade.png,28,NA,NA,That ,,1,dogs,susan,NA,,You also see this one:,predicative,You say to your friend:,doberman,56,doberman,,NA,NA,graduated_high_school,English,female,,NA,You see the following:,1,1575647015219,NA,images/doberman.png,NA,1.50, is big.,big,NA,main1
1194,NA,Fri Dec 06 2019 10:43:35 GMT-0500 (Eastern Standard Time),images/tree-parade.png,28,NA,NA,That ,,1,trees,susan,NA,,You also see this one:,predicative,You say to your friend:,bonsai,56,bonsai,,NA,NA,graduated_high_school,English,female,,NA,You see the following:,2,1575647015219,NA,images/bonsai.png,NA,1.50, is small.,small,NA,main1
1194,NA,Fri Dec 06 2019 10:43:35 GMT-0500 (Eastern Standard Time),images/flower-parade.png,28,NA,NA,That ,,1,flowers,susan,NA,,You also see this one:,predicative,You say to your friend:,daisy,56,daisy,,NA,NA,graduated_high_school,English,female,,NA,You see the following:,3,1575647015219,NA,images/daisy.png,NA,1.50, is small.,small,NA,main1
1194,hummingbird,Fri Dec 06 2019 10:43:35 GMT-0500 (Eastern Standard Time),NA,28,warmup/eagle.jpg,hummingbird,This is a ,,1,birds,susan,eagle,,Please label the pictures below.,NA,NA,NA,56,NA,,warmup/colibri.jpg,birds,graduated_high_school,English,female,NA,birds,NA,1,1575647015219,1,NA,This is an ,1.50,These are both,NA,eagle,warmup2
1194,swan,Fri Dec 06 2019 10:43:35 GMT-0500 (Eastern Standard Time),NA,28,warmup/canary.jpg,swan,This is a ,,1,birds,susan,canary,,Please label the pictures below.,NA,NA,NA,56,NA,,warmup/swan.jpg,ducks,graduated_high_school,English,female,NA,birds,NA,2,1575647015219,1,NA,This is a ,1.50,These are both,NA,parakeet,warmup2
1194,swan,Fri Dec 06 2019 10:43:35 GMT-0500 (Eastern Standard Time),NA,28,warmup/canary.jpg,swan,This is a ,,1,birds,susan,canary,,Please label the pictures below.,NA,NA,NA,56,NA,,warmup/swan.jpg,birds,graduated_high_school,English,female,NA,birds,NA,2,1575647015219,2,NA,This is a ,1.50,These are both,NA,canary,warmup2
1194,shark,Fri Dec 06 2019 10:43:35 GMT-0500 (Eastern Standard Time),NA,28,warmup/clownfish.jpg,tuna,This is a ,,1,fish,susan,clownfish,,Please label the pictures below.,NA,NA,NA,56,NA,,warmup/tuna.jpg,fish,graduated_high_school,English,female,NA,fish,NA,3,1575647015219,1,NA,This is a ,1.50,These are both,NA,goldfish,warmup2
1194,tuna,Fri Dec 06 2019 10:43:35 GMT-0500 (Eastern Standard Time),NA,28,warmup/clownfish.jpg,tuna,This is a ,,1,fish,susan,clownfish,,Please label the pictures below.,NA,NA,NA,56,NA,,warmup/tuna.jpg,fish,graduated_high_school,English,female,NA,fish,NA,3,1575647015219,2,NA,This is a ,1.50,These are both,NA,goldfish,warmup2
1194,tuna,Fri Dec 06 2019 10:43:35 GMT-0500 (Eastern Standard Time),NA,28,warmup/clownfish.jpg,tuna,This is a ,,1,fish,susan,clownfish,,Please label the pictures below.,NA,NA,NA,56,NA,,warmup/tuna.jpg,fish,graduated_high_school,English,female,NA,fish,NA,3,1575647015219,3,NA,This is a ,1.50,These are both,NA,clownfish,warmup2
1194,NA,Fri Dec 06 2019 10:43:35 GMT-0500 (Eastern Standard Time),images/bird-parade3.png,28,NA,NA,That ,,1,birds,susan,NA,,You also see this one:,predicative,You say to your friend:,canary,56,canary,,NA,NA,graduated_high_school,English,female,,NA,You see the following:,1,1575647015219,NA,images/canary.png,NA,1.50, is small.,small,NA,main2
1194,NA,Fri Dec 06 2019 10:43:35 GMT-0500 (Eastern Standard Time),images/bird-parade2.png,28,NA,NA,That ,,1,birds,susan,NA,,You also see this one:,predicative,You say to your friend:,eagle,56,eagle,,NA,NA,graduated_high_school,English,female,,NA,You see the following:,2,1575647015219,NA,images/eagle.png,NA,1.50, is big.,big,NA,main2
1194,NA,Fri Dec 06 2019 10:43:35 GMT-0500 (Eastern Standard Time),images/fish-parade2.png,28,NA,NA,That ,,1,fish,susan,NA,,You also see this one:,predicative,You say to your friend:,tuna,56,tuna,,NA,NA,graduated_high_school,English,female,,NA,You see the following:,3,1575647015219,NA,images/tuna.png,NA,1.50, is big.,big,NA,main2
1213,dandelion,Fri Dec 06 2019 11:11:04 GMT-0500 (Eastern Standard Time),NA,28,warmup/sunflower.png,dandelion,This is a ,,2,flowers,elizabeth,sunflower,,Please label the pictures below.,NA,NA,NA,,NA,,warmup/dandelion.jpg,flowers,,English,,NA,flowers,NA,1,1575648664649,1,NA,This is a ,1.00,These are both,NA,sunflower,warmup1
1213,pug,Fri Dec 06 2019 11:11:04 GMT-0500 (Eastern Standard Time),NA,28,warmup/great-dane.jpg,pug,This is a ,,2,dogs,elizabeth,great dane,,Please label the pictures below.,NA,NA,NA,,NA,,warmup/pug.jpg,dogs,,English,,NA,dogs,NA,2,1575648664649,1,NA,This is a ,1.00,These are both,NA,great dane,warmup1
1213,trout,Fri Dec 06 2019 11:11:04 GMT-0500 (Eastern Standard Time),NA,28,warmup/clownfish.jpg,tuna,This is a ,,2,fish,elizabeth,clownfish,,Please label the pictures below.,NA,NA,NA,,NA,,warmup/tuna.jpg,fish,,English,,NA,fish,NA,3,1575648664649,1,NA,This is a ,1.00,These are both,NA,clownfish,warmup1
1213,tuna,Fri Dec 06 2019 11:11:04 GMT-0500 (Eastern Standard Time),NA,28,warmup/clownfish.jpg,tuna,This is a ,,2,fish,elizabeth,clownfish,,Please label the pictures below.,NA,NA,NA,,NA,,warmup/tuna.jpg,fish,,English,,NA,fish,NA,3,1575648664649,2,NA,This is a ,1.00,These are both,NA,clownfish,warmup1
1213,NA,Fri Dec 06 2019 11:11:04 GMT-0500 (Eastern Standard Time),images/flower-parade2.png,28,NA,NA,That ,,2,flowers,elizabeth,NA,,You also see this one:,predicative,You say to your friend:,sunflower,,sunflower,,NA,NA,,English,,,NA,You see the following:,1,1575648664649,NA,images/sunflower.png,NA,1.00, is big.,big,NA,main1
1213,NA,Fri Dec 06 2019 11:11:04 GMT-0500 (Eastern Standard Time),images/dog-parade2.png,28,NA,NA,That ,,2,dogs,elizabeth,NA,,You also see this one:,predicative,You say to your friend:,great dane,,dog,,NA,NA,,English,,,NA,You see the following:,2,1575648664649,NA,images/great-dane.png,NA,1.00, is big.,big,NA,main1
1213,NA,Fri Dec 06 2019 11:11:04 GMT-0500 (Eastern Standard Time),images/fish-parade2.png,28,NA,NA,That ,,2,fish,elizabeth,NA,,You also see this one:,predicative,You say to your friend:,tuna,,tuna,,NA,NA,,English,,,NA,You see the following:,3,1575648664649,NA,images/tuna.png,NA,1.00, is big.,big,NA,main1
1213,hummingbird,Fri Dec 06 2019 11:11:04 GMT-0500 (Eastern Standard Time),NA,28,warmup/eagle.jpg,hummingbird,This is a ,,2,birds,elizabeth,eagle,,Please label the pictures below.,NA,NA,NA,,NA,,warmup/colibri.jpg,birds,,English,,NA,birds,NA,1,1575648664649,1,NA,This is an ,1.00,These are both,NA,eagle,warmup2
1213,chihuahua,Fri Dec 06 2019 11:11:04 GMT-0500 (Eastern Standard Time),NA,28,warmup/doberman.png,chihuahua,This is a ,,2,dogs,elizabeth,doberman,,Please label the pictures below.,NA,NA,NA,,NA,,warmup/chihuahua.jpg,dogs,,English,,NA,dogs,NA,2,1575648664649,1,NA,This is a ,1.00,These are both,NA,doberman,warmup2
1213,daisy,Fri Dec 06 2019 11:11:04 GMT-0500 (Eastern Standard Time),NA,28,warmup/peony.png,daisy,This is a ,,2,flowers,elizabeth,peony,,Please label the pictures below.,NA,NA,NA,,NA,,warmup/daisy.png,flowers,,English,,NA,flowers,NA,3,1575648664649,1,NA,This is a ,1.00,These are both,NA,peony,warmup2
1213,NA,Fri Dec 06 2019 11:11:04 GMT-0500 (Eastern Standard Time),images/dog-parade.png,28,NA,NA,That ,,2,dogs,elizabeth,NA,,You also see this one:,predicative,You say to your friend:,chihuahua,,chihuahua,,NA,NA,,English,,,NA,You see the following:,1,1575648664649,NA,images/chihuahua.png,NA,1.00, is small.,small,NA,main2
1213,NA,Fri Dec 06 2019 11:11:04 GMT-0500 (Eastern Standard Time),images/bird-parade2.png,28,NA,NA,That ,,2,birds,elizabeth,NA,,You also see this one:,predicative,You say to your friend:,hummingbird,,hummingbird,,NA,NA,,English,,,NA,You see the following:,2,1575648664649,NA,images/hummingbird.png,NA,1.00, is small.,small,NA,main2
1213,NA,Fri Dec 06 2019 11:11:04 GMT-0500 (Eastern Standard Time),images/flower-parade.png,28,NA,NA,That ,,2,flowers,elizabeth,NA,,You also see this one:,predicative,You say to your friend:,daisy,,daisy,,NA,NA,,English,,,NA,You see the following:,3,1575648664649,NA,images/daisy.png,NA,1.00, is small.,small,NA,main2
1240,Small dog,Fri Dec 06 2019 08:17:27 GMT-0800 (Pacific Standard Time),NA,28,warmup/doberman.png,chihuahua,This is a ,,,dogs,Elizabeth,doberman,yes,Please label the pictures below.,NA,NA,NA,25,NA,,warmup/chihuahua.jpg,DOGS,,,,NA,dogs,NA,1,1575649047064,1,NA,This is a ,,These are both,NA,Big dog,warmup1
1240,Chihuahua,Fri Dec 06 2019 08:17:27 GMT-0800 (Pacific Standard Time),NA,28,warmup/doberman.png,chihuahua,This is a ,,,dogs,Elizabeth,doberman,yes,Please label the pictures below.,NA,NA,NA,25,NA,,warmup/chihuahua.jpg,DOGS,,,,NA,dogs,NA,1,1575649047064,2,NA,This is a ,,These are both,NA,doberman,warmup1
1240,Anna paravai,Fri Dec 06 2019 08:17:27 GMT-0800 (Pacific Standard Time),NA,28,warmup/sparrow.jpg,goose,This is a ,,,birds,Elizabeth,sparrow,yes,Please label the pictures below.,NA,NA,NA,25,NA,,warmup/goose.png,Birds,,,,NA,birds,NA,2,1575649047064,1,NA,This is a ,,These are both,NA,Squrrle,warmup1
1240,goose,Fri Dec 06 2019 08:17:27 GMT-0800 (Pacific Standard Time),NA,28,warmup/sparrow.jpg,goose,This is a ,,,birds,Elizabeth,sparrow,yes,Please label the pictures below.,NA,NA,NA,25,NA,,warmup/goose.png,Birds,,,,NA,birds,NA,2,1575649047064,2,NA,This is a ,,These are both,NA,Sparrow,warmup1
1240,Sward fish,Fri Dec 06 2019 08:17:27 GMT-0800 (Pacific Standard Time),NA,28,warmup/goldfish.png,swordfish,This is a ,,,fish,Elizabeth,goldfish,yes,Please label the pictures below.,NA,NA,NA,25,NA,,warmup/swordfish.jpg,fish,,,,NA,fish,NA,3,1575649047064,1,NA,This is a ,,These are both,NA,Colwn fish,warmup1
1240,Swardfish,Fri Dec 06 2019 08:17:27 GMT-0800 (Pacific Standard Time),NA,28,warmup/goldfish.png,swordfish,This is a ,,,fish,Elizabeth,goldfish,yes,Please label the pictures below.,NA,NA,NA,25,NA,,warmup/swordfish.jpg,fish,,,,NA,fish,NA,3,1575649047064,2,NA,This is a ,,These are both,NA,goldfish,warmup1
1240,Swordfish,Fri Dec 06 2019 08:17:27 GMT-0800 (Pacific Standard Time),NA,28,warmup/goldfish.png,swordfish,This is a ,,,fish,Elizabeth,goldfish,yes,Please label the pictures below.,NA,NA,NA,25,NA,,warmup/swordfish.jpg,fish,,,,NA,fish,NA,3,1575649047064,3,NA,This is a ,,These are both,NA,goldfish,warmup1
1240,NA,Fri Dec 06 2019 08:17:27 GMT-0800 (Pacific Standard Time),images/bird-parade.png,28,NA,NA,That ,,,birds,Elizabeth,NA,yes,You also see this one:,predicative,You say to your friend:,goose,25,birds,,NA,NA,,,,,NA,You see the following:,1,1575649047064,NA,images/goose.png,NA,, is big.,big,NA,main1
1240,NA,Fri Dec 06 2019 08:17:27 GMT-0800 (Pacific Standard Time),images/fish-parade.png,28,NA,NA,That ,,,fish,Elizabeth,NA,yes,You also see this one:,predicative,You say to your friend:,goldfish,25,oldfish,,NA,NA,,,,,NA,You see the following:,2,1575649047064,NA,images/goldfish.png,NA,, is small.,small,NA,main1
1240,NA,Fri Dec 06 2019 08:17:27 GMT-0800 (Pacific Standard Time),images/dog-parade.png,28,NA,NA,That ,,,dogs,Elizabeth,NA,yes,You also see this one:,predicative,You say to your friend:,doberman,25,daberman,,NA,NA,,,,,NA,You see the following:,3,1575649047064,NA,images/doberman.png,NA,, is big.,big,NA,main1
1240,Squrrle,Fri Dec 06 2019 08:17:27 GMT-0800 (Pacific Standard Time),NA,28,warmup/eagle.jpg,hummingbird,This is a ,,,birds,Elizabeth,eagle,yes,Please label the pictures below.,NA,NA,NA,25,NA,,warmup/colibri.jpg,Birds,,,,NA,birds,NA,1,1575649047064,1,NA,This is an ,,These are both,NA,Eagle,warmup2
1240,hummingbird,Fri Dec 06 2019 08:17:27 GMT-0800 (Pacific Standard Time),NA,28,warmup/eagle.jpg,hummingbird,This is a ,,,birds,Elizabeth,eagle,yes,Please label the pictures below.,NA,NA,NA,25,NA,,warmup/colibri.jpg,Birds,,,,NA,birds,NA,1,1575649047064,2,NA,This is an ,,These are both,NA,Eagle,warmup2
1240,Bigtree,Fri Dec 06 2019 08:17:27 GMT-0800 (Pacific Standard Time),NA,28,warmup/bonsai.jpg,redwood|sequoia,This is a ,,,trees,Elizabeth,bonsai,yes,Please label the pictures below.,NA,NA,NA,25,NA,,warmup/sequoia.jpg,Trees,,,,NA,trees,NA,2,1575649047064,1,NA,This is a ,,These are both,NA,smailltree,warmup2
1240,redwood,Fri Dec 06 2019 08:17:27 GMT-0800 (Pacific Standard Time),NA,28,warmup/bonsai.jpg,redwood|sequoia,This is a ,,,trees,Elizabeth,bonsai,yes,Please label the pictures below.,NA,NA,NA,25,NA,,warmup/sequoia.jpg,Trees,,,,NA,trees,NA,2,1575649047064,2,NA,This is a ,,These are both,NA,bonsai,warmup2
1240,Pug,Fri Dec 06 2019 08:17:27 GMT-0800 (Pacific Standard Time),NA,28,warmup/great-dane.jpg,pug,This is a ,,,dogs,Elizabeth,great dane,yes,Please label the pictures below.,NA,NA,NA,25,NA,,warmup/pug.jpg,Dogs,,,,NA,dogs,NA,3,1575649047064,1,NA,This is a ,,These are both,NA,Labrador,warmup2
1240,Pug,Fri Dec 06 2019 08:17:27 GMT-0800 (Pacific Standard Time),NA,28,warmup/great-dane.jpg,pug,This is a ,,,dogs,Elizabeth,great dane,yes,Please label the pictures below.,NA,NA,NA,25,NA,,warmup/pug.jpg,Dogs,,,,NA,dogs,NA,3,1575649047064,2,NA,This is a ,,These are both,NA,great dane,warmup2
1240,NA,Fri Dec 06 2019 08:17:27 GMT-0800 (Pacific Standard Time),images/dog-parade2.png,28,NA,NA,That ,,,dogs,Elizabeth,NA,yes,You also see this one:,predicative,You say to your friend:,great dane,25,greatdane,,NA,NA,,,,,NA,You see the following:,1,1575649047064,NA,images/great-dane.png,NA,, is big.,big,NA,main2
1240,NA,Fri Dec 06 2019 08:17:27 GMT-0800 (Pacific Standard Time),images/bird-parade2.png,28,NA,NA,That ,,,birds,Elizabeth,NA,yes,You also see this one:,predicative,You say to your friend:,hummingbird,25,Hummingbird,,NA,NA,,,,,NA,You see the following:,2,1575649047064,NA,images/hummingbird.png,NA,, is small.,small,NA,main2
1240,NA,Fri Dec 06 2019 08:17:27 GMT-0800 (Pacific Standard Time),images/tree-parade.png,28,NA,NA,That ,,,trees,Elizabeth,NA,yes,You also see this one:,predicative,You say to your friend:,bonsai,25,tree,,NA,NA,,,,,NA,You see the following:,3,1575649047064,NA,images/bonsai.png,NA,, is small.,small,NA,main2
1162,tree,Fri Dec 06 2019 07:55:20 GMT-0800 (Pacific Standard Time),NA,28,warmup/bonsai.jpg,redwood|sequoia,This is a ,no issues,1,trees,Margaret,bonsai,yes,Please label the pictures below.,NA,NA,NA,28,NA,,warmup/sequoia.jpg,trees,graduated_high_school,spanish,male,NA,trees,NA,1,1575647720387,1,NA,This is a ,1.00,These are both,NA,bonsai,warmup1
1162,tree,Fri Dec 06 2019 07:55:20 GMT-0800 (Pacific Standard Time),NA,28,warmup/bonsai.jpg,redwood|sequoia,This is a ,no issues,1,trees,Margaret,bonsai,yes,Please label the pictures below.,NA,NA,NA,28,NA,,warmup/sequoia.jpg,trees,graduated_high_school,spanish,male,NA,trees,NA,1,1575647720387,2,NA,This is a ,1.00,These are both,NA,tree,warmup1
1162,redwood,Fri Dec 06 2019 07:55:20 GMT-0800 (Pacific Standard Time),NA,28,warmup/bonsai.jpg,redwood|sequoia,This is a ,no issues,1,trees,Margaret,bonsai,yes,Please label the pictures below.,NA,NA,NA,28,NA,,warmup/sequoia.jpg,trees,graduated_high_school,spanish,male,NA,trees,NA,1,1575647720387,3,NA,This is a ,1.00,These are both,NA,bonsai,warmup1
1162,bulldog,Fri Dec 06 2019 07:55:20 GMT-0800 (Pacific Standard Time),NA,28,warmup/great-dane.jpg,pug,This is a ,no issues,1,dogs,Margaret,great dane,yes,Please label the pictures below.,NA,NA,NA,28,NA,,warmup/pug.jpg,dogs,graduated_high_school,spanish,male,NA,dogs,NA,2,1575647720387,1,NA,This is a ,1.00,These are both,NA,dog,warmup1
1162,bulldog,Fri Dec 06 2019 07:55:20 GMT-0800 (Pacific Standard Time),NA,28,warmup/great-dane.jpg,pug,This is a ,no issues,1,dogs,Margaret,great dane,yes,Please label the pictures below.,NA,NA,NA,28,NA,,warmup/pug.jpg,dogs,graduated_high_school,spanish,male,NA,dogs,NA,2,1575647720387,2,NA,This is a ,1.00,These are both,NA,dog,warmup1
1162,bulldog,Fri Dec 06 2019 07:55:20 GMT-0800 (Pacific Standard Time),NA,28,warmup/great-dane.jpg,pug,This is a ,no issues,1,dogs,Margaret,great dane,yes,Please label the pictures below.,NA,NA,NA,28,NA,,warmup/pug.jpg,dogs,graduated_high_school,spanish,male,NA,dogs,NA,2,1575647720387,3,NA,This is a ,1.00,These are both,NA,dog,warmup1
1162,bulldog,Fri Dec 06 2019 07:55:20 GMT-0800 (Pacific Standard Time),NA,28,warmup/great-dane.jpg,pug,This is a ,no issues,1,dogs,Margaret,great dane,yes,Please label the pictures below.,NA,NA,NA,28,NA,,warmup/pug.jpg,dogs,graduated_high_school,spanish,male,NA,dogs,NA,2,1575647720387,4,NA,This is a ,1.00,These are both,NA,dog,warmup1
1162,bulldog,Fri Dec 06 2019 07:55:20 GMT-0800 (Pacific Standard Time),NA,28,warmup/great-dane.jpg,pug,This is a ,no issues,1,dogs,Margaret,great dane,yes,Please label the pictures below.,NA,NA,NA,28,NA,,warmup/pug.jpg,dogs,graduated_high_school,spanish,male,NA,dogs,NA,2,1575647720387,5,NA,This is a ,1.00,These are both,NA,dane,warmup1
1162,bulldog,Fri Dec 06 2019 07:55:20 GMT-0800 (Pacific Standard Time),NA,28,warmup/great-dane.jpg,pug,This is a ,no issues,1,dogs,Margaret,great dane,yes,Please label the pictures below.,NA,NA,NA,28,NA,,warmup/pug.jpg,dogs,graduated_high_school,spanish,male,NA,dogs,NA,2,1575647720387,6,NA,This is a ,1.00,These are both,NA,dane,warmup1
1162,pug,Fri Dec 06 2019 07:55:20 GMT-0800 (Pacific Standard Time),NA,28,warmup/great-dane.jpg,pug,This is a ,no issues,1,dogs,Margaret,great dane,yes,Please label the pictures below.,NA,NA,NA,28,NA,,warmup/pug.jpg,dogs,graduated_high_school,spanish,male,NA,dogs,NA,2,1575647720387,7,NA,This is a ,1.00,These are both,NA,great dane,warmup1
1162,hummingbird,Fri Dec 06 2019 07:55:20 GMT-0800 (Pacific Standard Time),NA,28,warmup/eagle.jpg,hummingbird,This is a ,no issues,1,birds,Margaret,eagle,yes,Please label the pictures below.,NA,NA,NA,28,NA,,warmup/colibri.jpg,birds,graduated_high_school,spanish,male,NA,birds,NA,3,1575647720387,1,NA,This is an ,1.00,These are both,NA,eagle,warmup1
1162,NA,Fri Dec 06 2019 07:55:20 GMT-0800 (Pacific Standard Time),images/bird-parade2.png,28,NA,NA,That ,no issues,1,birds,Margaret,NA,yes,You also see this one:,predicative,You say to your friend:,eagle,28,eagle,,NA,NA,graduated_high_school,spanish,male,,NA,You see the following:,1,1575647720387,NA,images/eagle.png,NA,1.00, is big.,big,NA,main1
1162,NA,Fri Dec 06 2019 07:55:20 GMT-0800 (Pacific Standard Time),images/tree-parade.png,28,NA,NA,That ,no issues,1,trees,Margaret,NA,yes,You also see this one:,predicative,You say to your friend:,bonsai,28,bonsai,,NA,NA,graduated_high_school,spanish,male,,NA,You see the following:,2,1575647720387,NA,images/bonsai.png,NA,1.00, is small.,small,NA,main1
1162,NA,Fri Dec 06 2019 07:55:20 GMT-0800 (Pacific Standard Time),images/dog-parade2.png,28,NA,NA,That ,no issues,1,dogs,Margaret,NA,yes,You also see this one:,predicative,You say to your friend:,great dane,28,great dane,,NA,NA,graduated_high_school,spanish,male,,NA,You see the following:,3,1575647720387,NA,images/great-dane.png,NA,1.00, is big.,big,NA,main1
1162,salmon,Fri Dec 06 2019 07:55:20 GMT-0800 (Pacific Standard Time),NA,28,warmup/clownfish.jpg,tuna,This is a ,no issues,1,fish,Margaret,clownfish,yes,Please label the pictures below.,NA,NA,NA,28,NA,,warmup/tuna.jpg,fish,graduated_high_school,spanish,male,NA,fish,NA,1,1575647720387,1,NA,This is a ,1.00,These are both,NA,clown fish,warmup2
1162,tuna,Fri Dec 06 2019 07:55:20 GMT-0800 (Pacific Standard Time),NA,28,warmup/clownfish.jpg,tuna,This is a ,no issues,1,fish,Margaret,clownfish,yes,Please label the pictures below.,NA,NA,NA,28,NA,,warmup/tuna.jpg,fish,graduated_high_school,spanish,male,NA,fish,NA,1,1575647720387,2,NA,This is a ,1.00,These are both,NA,clownfish,warmup2
1162,swan,Fri Dec 06 2019 07:55:20 GMT-0800 (Pacific Standard Time),NA,28,warmup/canary.jpg,swan,This is a ,no issues,1,birds,Margaret,canary,yes,Please label the pictures below.,NA,NA,NA,28,NA,,warmup/swan.jpg,birds,graduated_high_school,spanish,male,NA,birds,NA,2,1575647720387,1,NA,This is a ,1.00,These are both,NA,finch,warmup2
1162,swan,Fri Dec 06 2019 07:55:20 GMT-0800 (Pacific Standard Time),NA,28,warmup/canary.jpg,swan,This is a ,no issues,1,birds,Margaret,canary,yes,Please label the pictures below.,NA,NA,NA,28,NA,,warmup/swan.jpg,birds,graduated_high_school,spanish,male,NA,birds,NA,2,1575647720387,2,NA,This is a ,1.00,These are both,NA,canary,warmup2
1162,dendelion,Fri Dec 06 2019 07:55:20 GMT-0800 (Pacific Standard Time),NA,28,warmup/sunflower.png,dandelion,This is a ,no issues,1,flowers,Margaret,sunflower,yes,Please label the pictures below.,NA,NA,NA,28,NA,,warmup/dandelion.jpg,flowers,graduated_high_school,spanish,male,NA,flowers,NA,3,1575647720387,1,NA,This is a ,1.00,These are both,NA,sunflower,warmup2
1162,dandelion,Fri Dec 06 2019 07:55:20 GMT-0800 (Pacific Standard Time),NA,28,warmup/sunflower.png,dandelion,This is a ,no issues,1,flowers,Margaret,sunflower,yes,Please label the pictures below.,NA,NA,NA,28,NA,,warmup/dandelion.jpg,flowers,graduated_high_school,spanish,male,NA,flowers,NA,3,1575647720387,2,NA,This is a ,1.00,These are both,NA,sunflower,warmup2
1162,NA,Fri Dec 06 2019 07:55:20 GMT-0800 (Pacific Standard Time),images/bird-parade3.png,28,NA,NA,That ,no issues,1,birds,Margaret,NA,yes,You also see this one:,predicative,You say to your friend:,swan,28,swan,,NA,NA,graduated_high_school,spanish,male,,NA,You see the following:,1,1575647720387,NA,images/swan.png,NA,1.00, is big.,big,NA,main2
1162,NA,Fri Dec 06 2019 07:55:20 GMT-0800 (Pacific Standard Time),images/fish-parade2.png,28,NA,NA,That ,no issues,1,fish,Margaret,NA,yes,You also see this one:,predicative,You say to your friend:,clownfish,28,clownfish,,NA,NA,graduated_high_school,spanish,male,,NA,You see the following:,2,1575647720387,NA,images/clownfish.png,NA,1.00, is small.,small,NA,main2
1162,NA,Fri Dec 06 2019 07:55:20 GMT-0800 (Pacific Standard Time),images/flower-parade2.png,28,NA,NA,That ,no issues,1,flowers,Margaret,NA,yes,You also see this one:,predicative,You say to your friend:,dandelion,28,dandelion,,NA,NA,graduated_high_school,spanish,male,,NA,You see the following:,3,1575647720387,NA,images/dandelion.png,NA,1.00, is small.,small,NA,main2
1290,hummingbird,Mon Dec 09 2019 15:20:11 GMT-0500 (Eastern Standard Time),NA,28,warmup/eagle.jpg,hummingbird,This is a ,,2,birds,Jessica,eagle,yes,Please label the pictures below.,NA,NA,NA,42,NA,,warmup/colibri.jpg,birds,higher_degree,English,female,NA,birds,NA,1,1575922811732,1,NA,This is an ,,These are both,NA,eagle,warmup1
1290,pug,Mon Dec 09 2019 15:20:11 GMT-0500 (Eastern Standard Time),NA,28,warmup/great-dane.jpg,pug,This is a ,,2,dogs,Jessica,great dane,yes,Please label the pictures below.,NA,NA,NA,42,NA,,warmup/pug.jpg,dogs,higher_degree,English,female,NA,dogs,NA,2,1575922811732,1,NA,This is a ,,These are both,NA,great dane,warmup1
1290,swordfish,Mon Dec 09 2019 15:20:11 GMT-0500 (Eastern Standard Time),NA,28,warmup/goldfish.png,swordfish,This is a ,,2,fish,Jessica,goldfish,yes,Please label the pictures below.,NA,NA,NA,42,NA,,warmup/swordfish.jpg,fish,higher_degree,English,female,NA,fish,NA,3,1575922811732,1,NA,This is a ,,These are both,NA,goldfish,warmup1
1290,NA,Mon Dec 09 2019 15:20:11 GMT-0500 (Eastern Standard Time),images/fish-parade.png,28,NA,NA,That ,,2,fish,Jessica,NA,yes,You also see this one:,predicative,You say to your friend:,goldfish,42,fish,,NA,NA,higher_degree,English,female,,NA,You see the following:,1,1575922811732,NA,images/goldfish.png,NA,, is small.,small,NA,main1
1290,NA,Mon Dec 09 2019 15:20:11 GMT-0500 (Eastern Standard Time),images/bird-parade2.png,28,NA,NA,That ,,2,birds,Jessica,NA,yes,You also see this one:,predicative,You say to your friend:,eagle,42,bird,,NA,NA,higher_degree,English,female,,NA,You see the following:,2,1575922811732,NA,images/eagle.png,NA,, is big.,big,NA,main1
1290,NA,Mon Dec 09 2019 15:20:11 GMT-0500 (Eastern Standard Time),images/dog-parade2.png,28,NA,NA,That ,,2,dogs,Jessica,NA,yes,You also see this one:,predicative,You say to your friend:,pug,42,dog,,NA,NA,higher_degree,English,female,,NA,You see the following:,3,1575922811732,NA,images/pug.png,NA,, is small.,small,NA,main1
1290,swan,Mon Dec 09 2019 15:20:11 GMT-0500 (Eastern Standard Time),NA,28,warmup/canary.jpg,swan,This is a ,,2,birds,Jessica,canary,yes,Please label the pictures below.,NA,NA,NA,42,NA,,warmup/swan.jpg,birds,higher_degree,English,female,NA,birds,NA,1,1575922811732,1,NA,This is a ,,These are both,NA,finch,warmup2
1290,swan,Mon Dec 09 2019 15:20:11 GMT-0500 (Eastern Standard Time),NA,28,warmup/canary.jpg,swan,This is a ,,2,birds,Jessica,canary,yes,Please label the pictures below.,NA,NA,NA,42,NA,,warmup/swan.jpg,birds,higher_degree,English,female,NA,birds,NA,1,1575922811732,2,NA,This is a ,,These are both,NA,canary,warmup2
1290,Bass,Mon Dec 09 2019 15:20:11 GMT-0500 (Eastern Standard Time),NA,28,warmup/clownfish.jpg,tuna,This is a ,,2,fish,Jessica,clownfish,yes,Please label the pictures below.,NA,NA,NA,42,NA,,warmup/tuna.jpg,fish,higher_degree,English,female,NA,fish,NA,2,1575922811732,1,NA,This is a ,,These are both,NA,clownfish,warmup2
1290,tuna,Mon Dec 09 2019 15:20:11 GMT-0500 (Eastern Standard Time),NA,28,warmup/clownfish.jpg,tuna,This is a ,,2,fish,Jessica,clownfish,yes,Please label the pictures below.,NA,NA,NA,42,NA,,warmup/tuna.jpg,fish,higher_degree,English,female,NA,fish,NA,2,1575922811732,2,NA,This is a ,,These are both,NA,clownfish,warmup2
1290,daisy,Mon Dec 09 2019 15:20:11 GMT-0500 (Eastern Standard Time),NA,28,warmup/peony.png,daisy,This is a ,,2,flowers,Jessica,peony,yes,Please label the pictures below.,NA,NA,NA,42,NA,,warmup/daisy.png,flowers,higher_degree,English,female,NA,flowers,NA,3,1575922811732,1,NA,This is a ,,These are both,NA,carnation,warmup2
1290,daisy,Mon Dec 09 2019 15:20:11 GMT-0500 (Eastern Standard Time),NA,28,warmup/peony.png,daisy,This is a ,,2,flowers,Jessica,peony,yes,Please label the pictures below.,NA,NA,NA,42,NA,,warmup/daisy.png,flowers,higher_degree,English,female,NA,flowers,NA,3,1575922811732,2,NA,This is a ,,These are both,NA,peony,warmup2
1290,NA,Mon Dec 09 2019 15:20:11 GMT-0500 (Eastern Standard Time),images/bird-parade3.png,28,NA,NA,That ,,2,birds,Jessica,NA,yes,You also see this one:,predicative,You say to your friend:,swan,42,bird,,NA,NA,higher_degree,English,female,,NA,You see the following:,1,1575922811732,NA,images/swan.png,NA,, is big.,big,NA,main2
1290,NA,Mon Dec 09 2019 15:20:11 GMT-0500 (Eastern Standard Time),images/fish-parade2.png,28,NA,NA,That ,,2,fish,Jessica,NA,yes,You also see this one:,predicative,You say to your friend:,clownfish,42,fish,,NA,NA,higher_degree,English,female,,NA,You see the following:,2,1575922811732,NA,images/clownfish.png,NA,, is small.,small,NA,main2
1290,NA,Mon Dec 09 2019 15:20:11 GMT-0500 (Eastern Standard Time),images/flower-parade.png,28,NA,NA,That ,,2,flowers,Jessica,NA,yes,You also see this one:,predicative,You say to your friend:,peony,42,flower,,NA,NA,higher_degree,English,female,,NA,You see the following:,3,1575922811732,NA,images/peony.png,NA,, is big.,big,NA,main2
1163,chihuahua,Fri Dec 06 2019 10:54:04 GMT-0500 (Eastern Standard Time),NA,28,warmup/doberman.png,chihuahua,This is a ,No issues,2,dogs,Jennifer,doberman,yes,Please label the pictures below.,NA,NA,NA,44,NA,Thanks,warmup/chihuahua.jpg,dogs,graduated_college,English,male,NA,dogs,NA,1,1575647644776,1,NA,This is a ,1.00,These are both,NA,doberman,warmup1
1163,dog,Fri Dec 06 2019 10:54:04 GMT-0500 (Eastern Standard Time),NA,28,warmup/great-dane.jpg,pug,This is a ,No issues,2,dogs,Jennifer,great dane,yes,Please label the pictures below.,NA,NA,NA,44,NA,Thanks,warmup/pug.jpg,dogs,graduated_college,English,male,NA,dogs,NA,2,1575647644776,1,NA,This is a ,1.00,These are both,NA,dog,warmup1
1163,pug,Fri Dec 06 2019 10:54:04 GMT-0500 (Eastern Standard Time),NA,28,warmup/great-dane.jpg,pug,This is a ,No issues,2,dogs,Jennifer,great dane,yes,Please label the pictures below.,NA,NA,NA,44,NA,Thanks,warmup/pug.jpg,dogs,graduated_college,English,male,NA,dogs,NA,2,1575647644776,2,NA,This is a ,1.00,These are both,NA,great dane,warmup1
1163,dandelion,Fri Dec 06 2019 10:54:04 GMT-0500 (Eastern Standard Time),NA,28,warmup/peony.png,daisy,This is a ,No issues,2,flowers,Jennifer,peony,yes,Please label the pictures below.,NA,NA,NA,44,NA,Thanks,warmup/daisy.png,flowers,graduated_college,English,male,NA,flowers,NA,3,1575647644776,1,NA,This is a ,1.00,These are both,NA,rose,warmup1
1163,daisy,Fri Dec 06 2019 10:54:04 GMT-0500 (Eastern Standard Time),NA,28,warmup/peony.png,daisy,This is a ,No issues,2,flowers,Jennifer,peony,yes,Please label the pictures below.,NA,NA,NA,44,NA,Thanks,warmup/daisy.png,flowers,graduated_college,English,male,NA,flowers,NA,3,1575647644776,2,NA,This is a ,1.00,These are both,NA,peony,warmup1
1163,NA,Fri Dec 06 2019 10:54:04 GMT-0500 (Eastern Standard Time),images/dog-parade.png,28,NA,NA,That ,No issues,2,dogs,Jennifer,NA,yes,You also see this one:,predicative,You say to your friend:,doberman,44,dog,Thanks,NA,NA,graduated_college,English,male,,NA,You see the following:,1,1575647644776,NA,images/doberman.png,NA,1.00, is big.,big,NA,main1
1163,NA,Fri Dec 06 2019 10:54:04 GMT-0500 (Eastern Standard Time),images/flower-parade.png,28,NA,NA,That ,No issues,2,flowers,Jennifer,NA,yes,You also see this one:,predicative,You say to your friend:,daisy,44,flower,Thanks,NA,NA,graduated_college,English,male,,NA,You see the following:,2,1575647644776,NA,images/daisy.png,NA,1.00, is small.,small,NA,main1
1163,NA,Fri Dec 06 2019 10:54:04 GMT-0500 (Eastern Standard Time),images/dog-parade2.png,28,NA,NA,That ,No issues,2,dogs,Jennifer,NA,yes,You also see this one:,predicative,You say to your friend:,great dane,44,dog,Thanks,NA,NA,graduated_college,English,male,,NA,You see the following:,3,1575647644776,NA,images/great-dane.png,NA,1.00, is big.,big,NA,main1
1163,swordfish,Fri Dec 06 2019 10:54:04 GMT-0500 (Eastern Standard Time),NA,28,warmup/goldfish.png,swordfish,This is a ,No issues,2,fish,Jennifer,goldfish,yes,Please label the pictures below.,NA,NA,NA,44,NA,Thanks,warmup/swordfish.jpg,fish,graduated_college,English,male,NA,fish,NA,1,1575647644776,1,NA,This is a ,1.00,These are both,NA,goldfish,warmup2
1163,swan,Fri Dec 06 2019 10:54:04 GMT-0500 (Eastern Standard Time),NA,28,warmup/canary.jpg,swan,This is a ,No issues,2,birds,Jennifer,canary,yes,Please label the pictures below.,NA,NA,NA,44,NA,Thanks,warmup/swan.jpg,birds,graduated_college,English,male,NA,birds,NA,2,1575647644776,1,NA,This is a ,1.00,These are both,NA,parakeet,warmup2
1163,swan,Fri Dec 06 2019 10:54:04 GMT-0500 (Eastern Standard Time),NA,28,warmup/canary.jpg,swan,This is a ,No issues,2,birds,Jennifer,canary,yes,Please label the pictures below.,NA,NA,NA,44,NA,Thanks,warmup/swan.jpg,birds,graduated_college,English,male,NA,birds,NA,2,1575647644776,2,NA,This is a ,1.00,These are both,NA,canary,warmup2
1163,redwood,Fri Dec 06 2019 10:54:04 GMT-0500 (Eastern Standard Time),NA,28,warmup/bonsai.jpg,redwood|sequoia,This is a ,No issues,2,trees,Jennifer,bonsai,yes,Please label the pictures below.,NA,NA,NA,44,NA,Thanks,warmup/sequoia.jpg,trees,graduated_college,English,male,NA,trees,NA,3,1575647644776,1,NA,This is a ,1.00,These are both,NA,bonsai,warmup2
1163,NA,Fri Dec 06 2019 10:54:04 GMT-0500 (Eastern Standard Time),images/tree-parade.png,28,NA,NA,That ,No issues,2,trees,Jennifer,NA,yes,You also see this one:,predicative,You say to your friend:,sequoia,44,tree,Thanks,NA,NA,graduated_college,English,male,,NA,You see the following:,1,1575647644776,NA,images/sequoia.png,NA,1.00, is big.,big,NA,main2
1163,NA,Fri Dec 06 2019 10:54:04 GMT-0500 (Eastern Standard Time),images/bird-parade3.png,28,NA,NA,That ,No issues,2,birds,Jennifer,NA,yes,You also see this one:,predicative,You say to your friend:,canary,44,bird,Thanks,NA,NA,graduated_college,English,male,,NA,You see the following:,2,1575647644776,NA,images/canary.png,NA,1.00, is small.,small,NA,main2
1163,NA,Fri Dec 06 2019 10:54:04 GMT-0500 (Eastern Standard Time),images/fish-parade.png,28,NA,NA,That ,No issues,2,fish,Jennifer,NA,yes,You also see this one:,predicative,You say to your friend:,goldfish,44,fish,Thanks,NA,NA,graduated_college,English,male,,NA,You see the following:,3,1575647644776,NA,images/goldfish.png,NA,1.00, is small.,small,NA,main2
1179,daisy,Fri Dec 06 2019 10:58:48 GMT-0500 (Eastern Standard Time),NA,28,warmup/peony.png,daisy,This is a ,,1,flowers,sarah,peony,yes,Please label the pictures below.,NA,NA,NA,25,NA,,warmup/daisy.png,flowers,some_college,English,female,NA,flowers,NA,1,1575647928058,1,NA,This is a ,1.00,These are both,NA,rose,warmup1
1179,daisy,Fri Dec 06 2019 10:58:48 GMT-0500 (Eastern Standard Time),NA,28,warmup/peony.png,daisy,This is a ,,1,flowers,sarah,peony,yes,Please label the pictures below.,NA,NA,NA,25,NA,,warmup/daisy.png,flowers,some_college,English,female,NA,flowers,NA,1,1575647928058,2,NA,This is a ,1.00,These are both,NA,peony,warmup1
1179,swordfish,Fri Dec 06 2019 10:58:48 GMT-0500 (Eastern Standard Time),NA,28,warmup/goldfish.png,swordfish,This is a ,,1,fish,sarah,goldfish,yes,Please label the pictures below.,NA,NA,NA,25,NA,,warmup/swordfish.jpg,fish,some_college,English,female,NA,fish,NA,2,1575647928058,1,NA,This is a ,1.00,These are both,NA,goldfish,warmup1
1179,chihuahua,Fri Dec 06 2019 10:58:48 GMT-0500 (Eastern Standard Time),NA,28,warmup/doberman.png,chihuahua,This is a ,,1,dogs,sarah,doberman,yes,Please label the pictures below.,NA,NA,NA,25,NA,,warmup/chihuahua.jpg,dogs,some_college,English,female,NA,dogs,NA,3,1575647928058,1,NA,This is a ,1.00,These are both,NA,doberman,warmup1
1179,NA,Fri Dec 06 2019 10:58:48 GMT-0500 (Eastern Standard Time),images/flower-parade.png,28,NA,NA,That ,,1,flowers,sarah,NA,yes,You also see this one:,predicative,You say to your friend:,peony,25,flower,,NA,NA,some_college,English,female,,NA,You see the following:,1,1575647928058,NA,images/peony.png,NA,1.00, is big.,big,NA,main1
1179,NA,Fri Dec 06 2019 10:58:48 GMT-0500 (Eastern Standard Time),images/dog-parade.png,28,NA,NA,That ,,1,dogs,sarah,NA,yes,You also see this one:,predicative,You say to your friend:,chihuahua,25,dog,,NA,NA,some_college,English,female,,NA,You see the following:,2,1575647928058,NA,images/chihuahua.png,NA,1.00, is small.,small,NA,main1
1179,NA,Fri Dec 06 2019 10:58:48 GMT-0500 (Eastern Standard Time),images/fish-parade.png,28,NA,NA,That ,,1,fish,sarah,NA,yes,You also see this one:,predicative,You say to your friend:,goldfish,25,fish,,NA,NA,some_college,English,female,,NA,You see the following:,3,1575647928058,NA,images/goldfish.png,NA,1.00, is small.,small,NA,main1
1179,redwood,Fri Dec 06 2019 10:58:48 GMT-0500 (Eastern Standard Time),NA,28,warmup/bonsai.jpg,redwood|sequoia,This is a ,,1,trees,sarah,bonsai,yes,Please label the pictures below.,NA,NA,NA,25,NA,,warmup/sequoia.jpg,trees,some_college,English,female,NA,trees,NA,1,1575647928058,1,NA,This is a ,1.00,These are both,NA,bonsai,warmup2
1179,pug,Fri Dec 06 2019 10:58:48 GMT-0500 (Eastern Standard Time),NA,28,warmup/great-dane.jpg,pug,This is a ,,1,dogs,sarah,great dane,yes,Please label the pictures below.,NA,NA,NA,25,NA,,warmup/pug.jpg,dogs,some_college,English,female,NA,dogs,NA,2,1575647928058,1,NA,This is a ,1.00,These are both,NA,great dane,warmup2
1179,tuna,Fri Dec 06 2019 10:58:48 GMT-0500 (Eastern Standard Time),NA,28,warmup/clownfish.jpg,tuna,This is a ,,1,fish,sarah,clownfish,yes,Please label the pictures below.,NA,NA,NA,25,NA,,warmup/tuna.jpg,fish,some_college,English,female,NA,fish,NA,3,1575647928058,1,NA,This is a ,1.00,These are both,NA,clownfish,warmup2
1179,NA,Fri Dec 06 2019 10:58:48 GMT-0500 (Eastern Standard Time),images/fish-parade2.png,28,NA,NA,That ,,1,fish,sarah,NA,yes,You also see this one:,predicative,You say to your friend:,clownfish,25,clownfish,,NA,NA,some_college,English,female,,NA,You see the following:,1,1575647928058,NA,images/clownfish.png,NA,1.00, is small.,small,NA,main2
1179,NA,Fri Dec 06 2019 10:58:48 GMT-0500 (Eastern Standard Time),images/dog-parade2.png,28,NA,NA,That ,,1,dogs,sarah,NA,yes,You also see this one:,predicative,You say to your friend:,great dane,25,great dane,,NA,NA,some_college,English,female,,NA,You see the following:,2,1575647928058,NA,images/great-dane.png,NA,1.00, is big.,big,NA,main2
1179,NA,Fri Dec 06 2019 10:58:48 GMT-0500 (Eastern Standard Time),images/tree-parade.png,28,NA,NA,That ,,1,trees,sarah,NA,yes,You also see this one:,predicative,You say to your friend:,sequoia,25,tree,,NA,NA,some_college,English,female,,NA,You see the following:,3,1575647928058,NA,images/sequoia.png,NA,1.00, is big.,big,NA,main2
1199,marlin,Fri Dec 06 2019 10:02:08 GMT-0600 (Central Standard Time),NA,28,warmup/goldfish.png,swordfish,This is a ,no,1,fish,jessica,goldfish,,Please label the pictures below.,NA,NA,NA,,NA,,warmup/swordfish.jpg,fish,some_college,English,,NA,fish,NA,1,1575648128625,1,NA,This is a ,1,These are both,NA,golf fish,warmup1
1199,swordfish,Fri Dec 06 2019 10:02:08 GMT-0600 (Central Standard Time),NA,28,warmup/goldfish.png,swordfish,This is a ,no,1,fish,jessica,goldfish,,Please label the pictures below.,NA,NA,NA,,NA,,warmup/swordfish.jpg,fish,some_college,English,,NA,fish,NA,1,1575648128625,2,NA,This is a ,1,These are both,NA,goldfish,warmup1
1199,goose,Fri Dec 06 2019 10:02:08 GMT-0600 (Central Standard Time),NA,28,warmup/sparrow.jpg,goose,This is a ,no,1,birds,jessica,sparrow,,Please label the pictures below.,NA,NA,NA,,NA,,warmup/goose.png,birds,some_college,English,,NA,birds,NA,2,1575648128625,1,NA,This is a ,1,These are both,NA,sparrow,warmup1
1199,tree,Fri Dec 06 2019 10:02:08 GMT-0600 (Central Standard Time),NA,28,warmup/bonsai.jpg,redwood|sequoia,This is a ,no,1,trees,jessica,bonsai,,Please label the pictures below.,NA,NA,NA,,NA,,warmup/sequoia.jpg,trees,some_college,English,,NA,trees,NA,3,1575648128625,1,NA,This is a ,1,These are both,NA,bonzai tree,warmup1
1199,redwood,Fri Dec 06 2019 10:02:08 GMT-0600 (Central Standard Time),NA,28,warmup/bonsai.jpg,redwood|sequoia,This is a ,no,1,trees,jessica,bonsai,,Please label the pictures below.,NA,NA,NA,,NA,,warmup/sequoia.jpg,trees,some_college,English,,NA,trees,NA,3,1575648128625,2,NA,This is a ,1,These are both,NA,bonsai,warmup1
1199,NA,Fri Dec 06 2019 10:02:08 GMT-0600 (Central Standard Time),images/bird-parade.png,28,NA,NA,That ,no,1,birds,jessica,NA,,You also see this one:,predicative,You say to your friend:,goose,,goose,,NA,NA,some_college,English,,,NA,You see the following:,1,1575648128625,NA,images/goose.png,NA,1, is big.,big,NA,main1
1199,NA,Fri Dec 06 2019 10:02:08 GMT-0600 (Central Standard Time),images/fish-parade.png,28,NA,NA,That ,no,1,fish,jessica,NA,,You also see this one:,predicative,You say to your friend:,swordfish,,swordfish,,NA,NA,some_college,English,,,NA,You see the following:,2,1575648128625,NA,images/swordfish.png,NA,1, is big.,big,NA,main1
1199,NA,Fri Dec 06 2019 10:02:08 GMT-0600 (Central Standard Time),images/tree-parade.png,28,NA,NA,That ,no,1,trees,jessica,NA,,You also see this one:,predicative,You say to your friend:,bonsai,,bonsai,,NA,NA,some_college,English,,,NA,You see the following:,3,1575648128625,NA,images/bonsai.png,NA,1, is small.,small,NA,main1
1199,pug,Fri Dec 06 2019 10:02:08 GMT-0600 (Central Standard Time),NA,28,warmup/great-dane.jpg,pug,This is a ,no,1,dogs,jessica,great dane,,Please label the pictures below.,NA,NA,NA,,NA,,warmup/pug.jpg,dogs,some_college,English,,NA,dogs,NA,1,1575648128625,1,NA,This is a ,1,These are both,NA,hound,warmup2
1199,pug,Fri Dec 06 2019 10:02:08 GMT-0600 (Central Standard Time),NA,28,warmup/great-dane.jpg,pug,This is a ,no,1,dogs,jessica,great dane,,Please label the pictures below.,NA,NA,NA,,NA,,warmup/pug.jpg,dogs,some_college,English,,NA,dogs,NA,1,1575648128625,2,NA,This is a ,1,These are both,NA,great dane,warmup2
1199,hummingbird,Fri Dec 06 2019 10:02:08 GMT-0600 (Central Standard Time),NA,28,warmup/eagle.jpg,hummingbird,This is a ,no,1,birds,jessica,eagle,,Please label the pictures below.,NA,NA,NA,,NA,,warmup/colibri.jpg,birds,some_college,English,,NA,birds,NA,2,1575648128625,1,NA,This is an ,1,These are both,NA,eagle,warmup2
1199,chawahwah,Fri Dec 06 2019 10:02:08 GMT-0600 (Central Standard Time),NA,28,warmup/doberman.png,chihuahua,This is a ,no,1,dogs,jessica,doberman,,Please label the pictures below.,NA,NA,NA,,NA,,warmup/chihuahua.jpg,dogs,some_college,English,,NA,dogs,NA,3,1575648128625,1,NA,This is a ,1,These are both,NA,doberman,warmup2
1199,chihuahua,Fri Dec 06 2019 10:02:08 GMT-0600 (Central Standard Time),NA,28,warmup/doberman.png,chihuahua,This is a ,no,1,dogs,jessica,doberman,,Please label the pictures below.,NA,NA,NA,,NA,,warmup/chihuahua.jpg,dogs,some_college,English,,NA,dogs,NA,3,1575648128625,2,NA,This is a ,1,These are both,NA,doberman,warmup2
1199,NA,Fri Dec 06 2019 10:02:08 GMT-0600 (Central Standard Time),images/dog-parade2.png,28,NA,NA,That ,no,1,dogs,jessica,NA,,You also see this one:,predicative,You say to your friend:,pug,,pug,,NA,NA,some_college,English,,,NA,You see the following:,1,1575648128625,NA,images/pug.png,NA,1, is small.,small,NA,main2
1199,NA,Fri Dec 06 2019 10:02:08 GMT-0600 (Central Standard Time),images/bird-parade2.png,28,NA,NA,That ,no,1,birds,jessica,NA,,You also see this one:,predicative,You say to your friend:,hummingbird,,hummingbird,,NA,NA,some_college,English,,,NA,You see the following:,2,1575648128625,NA,images/hummingbird.png,NA,1, is small.,small,NA,main2
1199,NA,Fri Dec 06 2019 10:02:08 GMT-0600 (Central Standard Time),images/dog-parade.png,28,NA,NA,That ,no,1,dogs,jessica,NA,,You also see this one:,predicative,You say to your friend:,doberman,,doberman,,NA,NA,some_college,English,,,NA,You see the following:,3,1575648128625,NA,images/doberman.png,NA,1, is big.,big,NA,main2
1222,big tree,Fri Dec 06 2019 10:08:29 GMT-0600 (Central Standard Time),NA,28,warmup/bonsai.jpg,redwood|sequoia,This is a ,,1,trees,jennifer,bonsai,,Please label the pictures below.,NA,NA,NA,34,NA,,warmup/sequoia.jpg,trees,graduated_college,English,male,NA,trees,NA,1,1575648509243,1,NA,This is a ,1.5,These are both,NA,small tree,warmup1
1222,redwood,Fri Dec 06 2019 10:08:29 GMT-0600 (Central Standard Time),NA,28,warmup/bonsai.jpg,redwood|sequoia,This is a ,,1,trees,jennifer,bonsai,,Please label the pictures below.,NA,NA,NA,34,NA,,warmup/sequoia.jpg,trees,graduated_college,English,male,NA,trees,NA,1,1575648509243,2,NA,This is a ,1.5,These are both,NA,bonsai,warmup1
1222,swan,Fri Dec 06 2019 10:08:29 GMT-0600 (Central Standard Time),NA,28,warmup/canary.jpg,swan,This is a ,,1,birds,jennifer,canary,,Please label the pictures below.,NA,NA,NA,34,NA,,warmup/swan.jpg,birds,graduated_college,English,male,NA,birds,NA,2,1575648509243,1,NA,This is a ,1.5,These are both,NA,parakeet,warmup1
1222,swan,Fri Dec 06 2019 10:08:29 GMT-0600 (Central Standard Time),NA,28,warmup/canary.jpg,swan,This is a ,,1,birds,jennifer,canary,,Please label the pictures below.,NA,NA,NA,34,NA,,warmup/swan.jpg,birds,graduated_college,English,male,NA,birds,NA,2,1575648509243,2,NA,This is a ,1.5,These are both,NA,canary,warmup1
1222,lily,Fri Dec 06 2019 10:08:29 GMT-0600 (Central Standard Time),NA,28,warmup/sunflower.png,dandelion,This is a ,,1,flowers,jennifer,sunflower,,Please label the pictures below.,NA,NA,NA,34,NA,,warmup/dandelion.jpg,flowers,graduated_college,English,male,NA,flowers,NA,3,1575648509243,1,NA,This is a ,1.5,These are both,NA,sunflower,warmup1
1222,dandelion,Fri Dec 06 2019 10:08:29 GMT-0600 (Central Standard Time),NA,28,warmup/sunflower.png,dandelion,This is a ,,1,flowers,jennifer,sunflower,,Please label the pictures below.,NA,NA,NA,34,NA,,warmup/dandelion.jpg,flowers,graduated_college,English,male,NA,flowers,NA,3,1575648509243,2,NA,This is a ,1.5,These are both,NA,sunflower,warmup1
1222,NA,Fri Dec 06 2019 10:08:29 GMT-0600 (Central Standard Time),images/bird-parade3.png,28,NA,NA,That ,,1,birds,jennifer,NA,,You also see this one:,predicative,You say to your friend:,canary,34,canary,,NA,NA,graduated_college,English,male,,NA,You see the following:,1,1575648509243,NA,images/canary.png,NA,1.5, is small.,small,NA,main1
1222,NA,Fri Dec 06 2019 10:08:29 GMT-0600 (Central Standard Time),images/flower-parade2.png,28,NA,NA,That ,,1,flowers,jennifer,NA,,You also see this one:,predicative,You say to your friend:,sunflower,34,sunflower,,NA,NA,graduated_college,English,male,,NA,You see the following:,2,1575648509243,NA,images/sunflower.png,NA,1.5, is big.,big,NA,main1
1222,NA,Fri Dec 06 2019 10:08:29 GMT-0600 (Central Standard Time),images/tree-parade.png,28,NA,NA,That ,,1,trees,jennifer,NA,,You also see this one:,predicative,You say to your friend:,bonsai,34,bonsai,,NA,NA,graduated_college,English,male,,NA,You see the following:,3,1575648509243,NA,images/bonsai.png,NA,1.5, is small.,small,NA,main1
1222,goose,Fri Dec 06 2019 10:08:29 GMT-0600 (Central Standard Time),NA,28,warmup/sparrow.jpg,goose,This is a ,,1,birds,jennifer,sparrow,,Please label the pictures below.,NA,NA,NA,34,NA,,warmup/goose.png,birds,graduated_college,English,male,NA,birds,NA,1,1575648509243,1,NA,This is a ,1.5,These are both,NA,piper,warmup2
1222,goose,Fri Dec 06 2019 10:08:29 GMT-0600 (Central Standard Time),NA,28,warmup/sparrow.jpg,goose,This is a ,,1,birds,jennifer,sparrow,,Please label the pictures below.,NA,NA,NA,34,NA,,warmup/goose.png,birds,graduated_college,English,male,NA,birds,NA,1,1575648509243,2,NA,This is a ,1.5,These are both,NA,sparrow,warmup2
1222,tuna,Fri Dec 06 2019 10:08:29 GMT-0600 (Central Standard Time),NA,28,warmup/clownfish.jpg,tuna,This is a ,,1,fish,jennifer,clownfish,,Please label the pictures below.,NA,NA,NA,34,NA,,warmup/tuna.jpg,fish,graduated_college,English,male,NA,fish,NA,2,1575648509243,1,NA,This is a ,1.5,These are both,NA,lion,warmup2
1222,tuna,Fri Dec 06 2019 10:08:29 GMT-0600 (Central Standard Time),NA,28,warmup/clownfish.jpg,tuna,This is a ,,1,fish,jennifer,clownfish,,Please label the pictures below.,NA,NA,NA,34,NA,,warmup/tuna.jpg,fish,graduated_college,English,male,NA,fish,NA,2,1575648509243,2,NA,This is a ,1.5,These are both,NA,clownfish,warmup2
1222,chihuahua,Fri Dec 06 2019 10:08:29 GMT-0600 (Central Standard Time),NA,28,warmup/doberman.png,chihuahua,This is a ,,1,dogs,jennifer,doberman,,Please label the pictures below.,NA,NA,NA,34,NA,,warmup/chihuahua.jpg,dogs,graduated_college,English,male,NA,dogs,NA,3,1575648509243,1,NA,This is a ,1.5,These are both,NA,doberman,warmup2
1222,NA,Fri Dec 06 2019 10:08:29 GMT-0600 (Central Standard Time),images/fish-parade2.png,28,NA,NA,That ,,1,fish,jennifer,NA,,You also see this one:,predicative,You say to your friend:,tuna,34,tuna,,NA,NA,graduated_college,English,male,,NA,You see the following:,1,1575648509243,NA,images/tuna.png,NA,1.5, is big.,big,NA,main2
1222,NA,Fri Dec 06 2019 10:08:29 GMT-0600 (Central Standard Time),images/bird-parade.png,28,NA,NA,That ,,1,birds,jennifer,NA,,You also see this one:,predicative,You say to your friend:,goose,34,goose,,NA,NA,graduated_college,English,male,,NA,You see the following:,2,1575648509243,NA,images/goose.png,NA,1.5, is big.,big,NA,main2
1222,NA,Fri Dec 06 2019 10:08:29 GMT-0600 (Central Standard Time),images/dog-parade.png,28,NA,NA,That ,,1,dogs,jennifer,NA,,You also see this one:,predicative,You say to your friend:,chihuahua,34,chihuahua,,NA,NA,graduated_college,English,male,,NA,You see the following:,3,1575648509243,NA,images/chihuahua.png,NA,1.5, is small.,small,NA,main2
1233,tall tree,Fri Dec 06 2019 11:12:02 GMT-0500 (Eastern Standard Time),NA,28,warmup/bonsai.jpg,redwood|sequoia,This is a ,No,2,trees,Barbara,bonsai,yes,Please label the pictures below.,NA,NA,NA,61,NA,This was fun,warmup/sequoia.jpg,trees,some_college,English,female,NA,trees,NA,1,1575648722505,1,NA,This is a ,1.00,These are both,NA,small tree,warmup1
1233,tree,Fri Dec 06 2019 11:12:02 GMT-0500 (Eastern Standard Time),NA,28,warmup/bonsai.jpg,redwood|sequoia,This is a ,No,2,trees,Barbara,bonsai,yes,Please label the pictures below.,NA,NA,NA,61,NA,This was fun,warmup/sequoia.jpg,tree,some_college,English,female,NA,trees,NA,1,1575648722505,2,NA,This is a ,1.00,These are both,NA,tree,warmup1
1233,redwood,Fri Dec 06 2019 11:12:02 GMT-0500 (Eastern Standard Time),NA,28,warmup/bonsai.jpg,redwood|sequoia,This is a ,No,2,trees,Barbara,bonsai,yes,Please label the pictures below.,NA,NA,NA,61,NA,This was fun,warmup/sequoia.jpg,tree,some_college,English,female,NA,trees,NA,1,1575648722505,3,NA,This is a ,1.00,These are both,NA,bonsai,warmup1
1233,redwood,Fri Dec 06 2019 11:12:02 GMT-0500 (Eastern Standard Time),NA,28,warmup/bonsai.jpg,redwood|sequoia,This is a ,No,2,trees,Barbara,bonsai,yes,Please label the pictures below.,NA,NA,NA,61,NA,This was fun,warmup/sequoia.jpg,trees,some_college,English,female,NA,trees,NA,1,1575648722505,4,NA,This is a ,1.00,These are both,NA,bonsai,warmup1
1233,chihuahua,Fri Dec 06 2019 11:12:02 GMT-0500 (Eastern Standard Time),NA,28,warmup/doberman.png,chihuahua,This is a ,No,2,dogs,Barbara,doberman,yes,Please label the pictures below.,NA,NA,NA,61,NA,This was fun,warmup/chihuahua.jpg,dogs,some_college,English,female,NA,dogs,NA,2,1575648722505,1,NA,This is a ,1.00,These are both,NA,Doberman,warmup1
1233,Dandelion,Fri Dec 06 2019 11:12:02 GMT-0500 (Eastern Standard Time),NA,28,warmup/sunflower.png,dandelion,This is a ,No,2,flowers,Barbara,sunflower,yes,Please label the pictures below.,NA,NA,NA,61,NA,This was fun,warmup/dandelion.jpg,flowers,some_college,English,female,NA,flowers,NA,3,1575648722505,1,NA,This is a ,1.00,These are both,NA,sunflower,warmup1
1233,NA,Fri Dec 06 2019 11:12:02 GMT-0500 (Eastern Standard Time),images/dog-parade.png,28,NA,NA,That ,No,2,dogs,Barbara,NA,yes,You also see this one:,predicative,You say to your friend:,chihuahua,61,last,This was fun,NA,NA,some_college,English,female,,NA,You see the following:,1,1575648722505,NA,images/chihuahua.png,NA,1.00, is small.,small,NA,main1
1233,NA,Fri Dec 06 2019 11:12:02 GMT-0500 (Eastern Standard Time),images/flower-parade2.png,28,NA,NA,That ,No,2,flowers,Barbara,NA,yes,You also see this one:,predicative,You say to your friend:,dandelion,61,dandelion,This was fun,NA,NA,some_college,English,female,,NA,You see the following:,2,1575648722505,NA,images/dandelion.png,NA,1.00, is small.,small,NA,main1
1233,NA,Fri Dec 06 2019 11:12:02 GMT-0500 (Eastern Standard Time),images/tree-parade.png,28,NA,NA,That ,No,2,trees,Barbara,NA,yes,You also see this one:,predicative,You say to your friend:,sequoia,61,oak,This was fun,NA,NA,some_college,English,female,,NA,You see the following:,3,1575648722505,NA,images/sequoia.png,NA,1.00, is big.,big,NA,main1
1233,daisy,Fri Dec 06 2019 11:12:02 GMT-0500 (Eastern Standard Time),NA,28,warmup/peony.png,daisy,This is a ,No,2,flowers,Barbara,peony,yes,Please label the pictures below.,NA,NA,NA,61,NA,This was fun,warmup/daisy.png,flowers,some_college,English,female,NA,flowers,NA,1,1575648722505,1,NA,This is a ,1.00,These are both,NA,begonia,warmup2
1233,daisy,Fri Dec 06 2019 11:12:02 GMT-0500 (Eastern Standard Time),NA,28,warmup/peony.png,daisy,This is a ,No,2,flowers,Barbara,peony,yes,Please label the pictures below.,NA,NA,NA,61,NA,This was fun,warmup/daisy.png,flowers,some_college,English,female,NA,flowers,NA,1,1575648722505,2,NA,This is a ,1.00,These are both,NA,peony,warmup2
1233,tuna,Fri Dec 06 2019 11:12:02 GMT-0500 (Eastern Standard Time),NA,28,warmup/clownfish.jpg,tuna,This is a ,No,2,fish,Barbara,clownfish,yes,Please label the pictures below.,NA,NA,NA,61,NA,This was fun,warmup/tuna.jpg,fish,some_college,English,female,NA,fish,NA,2,1575648722505,1,NA,This is a ,1.00,These are both,NA,clown,warmup2
1233,tuna,Fri Dec 06 2019 11:12:02 GMT-0500 (Eastern Standard Time),NA,28,warmup/clownfish.jpg,tuna,This is a ,No,2,fish,Barbara,clownfish,yes,Please label the pictures below.,NA,NA,NA,61,NA,This was fun,warmup/tuna.jpg,fish,some_college,English,female,NA,fish,NA,2,1575648722505,2,NA,This is a ,1.00,These are both,NA,clownfish,warmup2
1233,swordfish,Fri Dec 06 2019 11:12:02 GMT-0500 (Eastern Standard Time),NA,28,warmup/goldfish.png,swordfish,This is a ,No,2,fish,Barbara,goldfish,yes,Please label the pictures below.,NA,NA,NA,61,NA,This was fun,warmup/swordfish.jpg,fish,some_college,English,female,NA,fish,NA,3,1575648722505,1,NA,This is a ,1.00,These are both,NA,goldfish,warmup2
1233,NA,Fri Dec 06 2019 11:12:02 GMT-0500 (Eastern Standard Time),images/fish-parade2.png,28,NA,NA,That ,No,2,fish,Barbara,NA,yes,You also see this one:,predicative,You say to your friend:,tuna,61,Tuna,This was fun,NA,NA,some_college,English,female,,NA,You see the following:,1,1575648722505,NA,images/tuna.png,NA,1.00, is big.,big,NA,main2
1233,NA,Fri Dec 06 2019 11:12:02 GMT-0500 (Eastern Standard Time),images/fish-parade.png,28,NA,NA,That ,No,2,fish,Barbara,NA,yes,You also see this one:,predicative,You say to your friend:,goldfish,61,goldfish,This was fun,NA,NA,some_college,English,female,,NA,You see the following:,2,1575648722505,NA,images/goldfish.png,NA,1.00, is small.,small,NA,main2
1233,NA,Fri Dec 06 2019 11:12:02 GMT-0500 (Eastern Standard Time),images/flower-parade.png,28,NA,NA,That ,No,2,flowers,Barbara,NA,yes,You also see this one:,predicative,You say to your friend:,peony,61,peony,This was fun,NA,NA,some_college,English,female,,NA,You see the following:,3,1575648722505,NA,images/peony.png,NA,1.00, is big.,big,NA,main2
1244,pug,Fri Dec 06 2019 11:22:09 GMT-0500 (Eastern Standard Time),NA,28,warmup/great-dane.jpg,pug,This is a ,everything worked great,2,dogs,elizabeth,great dane,yes,Please label the pictures below.,NA,NA,NA,53,NA,none,warmup/pug.jpg,dogs,some_college,English,female,NA,dogs,NA,1,1575649329289,1,NA,This is a ,1.00,These are both,NA,great dane,warmup1
1244,swan,Fri Dec 06 2019 11:22:09 GMT-0500 (Eastern Standard Time),NA,28,warmup/canary.jpg,swan,This is a ,everything worked great,2,birds,elizabeth,canary,yes,Please label the pictures below.,NA,NA,NA,53,NA,none,warmup/swan.jpg,birds,some_college,English,female,NA,birds,NA,2,1575649329289,1,NA,This is a ,1.00,These are both,NA,parrot,warmup1
1244,swan,Fri Dec 06 2019 11:22:09 GMT-0500 (Eastern Standard Time),NA,28,warmup/canary.jpg,swan,This is a ,everything worked great,2,birds,elizabeth,canary,yes,Please label the pictures below.,NA,NA,NA,53,NA,none,warmup/swan.jpg,birds,some_college,English,female,NA,birds,NA,2,1575649329289,2,NA,This is a ,1.00,These are both,NA,canary,warmup1
1244,mackerel,Fri Dec 06 2019 11:22:09 GMT-0500 (Eastern Standard Time),NA,28,warmup/clownfish.jpg,tuna,This is a ,everything worked great,2,fish,elizabeth,clownfish,yes,Please label the pictures below.,NA,NA,NA,53,NA,none,warmup/tuna.jpg,fish,some_college,English,female,NA,fish,NA,3,1575649329289,1,NA,This is a ,1.00,These are both,NA,clown fish,warmup1
1244,tuna,Fri Dec 06 2019 11:22:09 GMT-0500 (Eastern Standard Time),NA,28,warmup/clownfish.jpg,tuna,This is a ,everything worked great,2,fish,elizabeth,clownfish,yes,Please label the pictures below.,NA,NA,NA,53,NA,none,warmup/tuna.jpg,fish,some_college,English,female,NA,fish,NA,3,1575649329289,2,NA,This is a ,1.00,These are both,NA,clownfish,warmup1
1244,NA,Fri Dec 06 2019 11:22:09 GMT-0500 (Eastern Standard Time),images/dog-parade2.png,28,NA,NA,That ,everything worked great,2,dogs,elizabeth,NA,yes,You also see this one:,predicative,You say to your friend:,pug,53,dog,none,NA,NA,some_college,English,female,,NA,You see the following:,1,1575649329289,NA,images/pug.png,NA,1.00, is small.,small,NA,main1
1244,NA,Fri Dec 06 2019 11:22:09 GMT-0500 (Eastern Standard Time),images/fish-parade2.png,28,NA,NA,That ,everything worked great,2,fish,elizabeth,NA,yes,You also see this one:,predicative,You say to your friend:,tuna,53,fish,none,NA,NA,some_college,English,female,,NA,You see the following:,2,1575649329289,NA,images/tuna.png,NA,1.00, is big.,big,NA,main1
1244,NA,Fri Dec 06 2019 11:22:09 GMT-0500 (Eastern Standard Time),images/bird-parade3.png,28,NA,NA,That ,everything worked great,2,birds,elizabeth,NA,yes,You also see this one:,predicative,You say to your friend:,swan,53,swan,none,NA,NA,some_college,English,female,,NA,You see the following:,3,1575649329289,NA,images/swan.png,NA,1.00, is big.,big,NA,main1
1244,daisy,Fri Dec 06 2019 11:22:09 GMT-0500 (Eastern Standard Time),NA,28,warmup/peony.png,daisy,This is a ,everything worked great,2,flowers,elizabeth,peony,yes,Please label the pictures below.,NA,NA,NA,53,NA,none,warmup/daisy.png,flowers,some_college,English,female,NA,flowers,NA,1,1575649329289,1,NA,This is a ,1.00,These are both,NA,rose,warmup2
1244,daisy,Fri Dec 06 2019 11:22:09 GMT-0500 (Eastern Standard Time),NA,28,warmup/peony.png,daisy,This is a ,everything worked great,2,flowers,elizabeth,peony,yes,Please label the pictures below.,NA,NA,NA,53,NA,none,warmup/daisy.png,flowers,some_college,English,female,NA,flowers,NA,1,1575649329289,2,NA,This is a ,1.00,These are both,NA,peony,warmup2
1244,chichua,Fri Dec 06 2019 11:22:09 GMT-0500 (Eastern Standard Time),NA,28,warmup/doberman.png,chihuahua,This is a ,everything worked great,2,dogs,elizabeth,doberman,yes,Please label the pictures below.,NA,NA,NA,53,NA,none,warmup/chihuahua.jpg,dogs,some_college,English,female,NA,dogs,NA,2,1575649329289,1,NA,This is a ,1.00,These are both,NA,doberman,warmup2
1244,chihuahua,Fri Dec 06 2019 11:22:09 GMT-0500 (Eastern Standard Time),NA,28,warmup/doberman.png,chihuahua,This is a ,everything worked great,2,dogs,elizabeth,doberman,yes,Please label the pictures below.,NA,NA,NA,53,NA,none,warmup/chihuahua.jpg,dogs,some_college,English,female,NA,dogs,NA,2,1575649329289,2,NA,This is a ,1.00,These are both,NA,doberman,warmup2
1244,hummingbird,Fri Dec 06 2019 11:22:09 GMT-0500 (Eastern Standard Time),NA,28,warmup/eagle.jpg,hummingbird,This is a ,everything worked great,2,birds,elizabeth,eagle,yes,Please label the pictures below.,NA,NA,NA,53,NA,none,warmup/colibri.jpg,birds,some_college,English,female,NA,birds,NA,3,1575649329289,1,NA,This is an ,1.00,These are both,NA,eagle,warmup2
1244,NA,Fri Dec 06 2019 11:22:09 GMT-0500 (Eastern Standard Time),images/dog-parade.png,28,NA,NA,That ,everything worked great,2,dogs,elizabeth,NA,yes,You also see this one:,predicative,You say to your friend:,chihuahua,53,dog,none,NA,NA,some_college,English,female,,NA,You see the following:,1,1575649329289,NA,images/chihuahua.png,NA,1.00, is small.,small,NA,main2
1244,NA,Fri Dec 06 2019 11:22:09 GMT-0500 (Eastern Standard Time),images/bird-parade2.png,28,NA,NA,That ,everything worked great,2,birds,elizabeth,NA,yes,You also see this one:,predicative,You say to your friend:,eagle,53,eagle,none,NA,NA,some_college,English,female,,NA,You see the following:,2,1575649329289,NA,images/eagle.png,NA,1.00, is big.,big,NA,main2
1244,NA,Fri Dec 06 2019 11:22:09 GMT-0500 (Eastern Standard Time),images/flower-parade.png,28,NA,NA,That ,everything worked great,2,flowers,elizabeth,NA,yes,You also see this one:,predicative,You say to your friend:,daisy,53,flower,none,NA,NA,some_college,English,female,,NA,You see the following:,3,1575649329289,NA,images/daisy.png,NA,1.00, is small.,small,NA,main2
1249,daisy,Fri Dec 06 2019 11:29:27 GMT-0500 (Eastern Standard Time),NA,28,warmup/peony.png,daisy,This is a ,None,1,flowers,linda,peony,yes,Please label the pictures below.,NA,NA,NA,32,NA,,warmup/daisy.png,flowers,higher_degree,english,female,NA,flowers,NA,1,1575649767165,1,NA,This is a ,1.00,These are both,NA,peony,warmup1
1249,pug,Fri Dec 06 2019 11:29:27 GMT-0500 (Eastern Standard Time),NA,28,warmup/great-dane.jpg,pug,This is a ,None,1,dogs,linda,great dane,yes,Please label the pictures below.,NA,NA,NA,32,NA,,warmup/pug.jpg,dogs,higher_degree,english,female,NA,dogs,NA,2,1575649767165,1,NA,This is a ,1.00,These are both,NA,great dane,warmup1
1249,dandelion,Fri Dec 06 2019 11:29:27 GMT-0500 (Eastern Standard Time),NA,28,warmup/sunflower.png,dandelion,This is a ,None,1,flowers,linda,sunflower,yes,Please label the pictures below.,NA,NA,NA,32,NA,,warmup/dandelion.jpg,flowers,higher_degree,english,female,NA,flowers,NA,3,1575649767165,1,NA,This is a ,1.00,These are both,NA,sunflower,warmup1
1249,NA,Fri Dec 06 2019 11:29:27 GMT-0500 (Eastern Standard Time),images/dog-parade2.png,28,NA,NA,That ,None,1,dogs,linda,NA,yes,You also see this one:,predicative,You say to your friend:,great dane,32,dog,,NA,NA,higher_degree,english,female,,NA,You see the following:,1,1575649767165,NA,images/great-dane.png,NA,1.00, is big.,big,NA,main1
1249,NA,Fri Dec 06 2019 11:29:27 GMT-0500 (Eastern Standard Time),images/flower-parade.png,28,NA,NA,That ,None,1,flowers,linda,NA,yes,You also see this one:,predicative,You say to your friend:,daisy,32,flower,,NA,NA,higher_degree,english,female,,NA,You see the following:,2,1575649767165,NA,images/daisy.png,NA,1.00, is small.,small,NA,main1
1249,NA,Fri Dec 06 2019 11:29:27 GMT-0500 (Eastern Standard Time),images/flower-parade2.png,28,NA,NA,That ,None,1,flowers,linda,NA,yes,You also see this one:,predicative,You say to your friend:,dandelion,32,flower,,NA,NA,higher_degree,english,female,,NA,You see the following:,3,1575649767165,NA,images/dandelion.png,NA,1.00, is small.,small,NA,main1
1249,swan,Fri Dec 06 2019 11:29:27 GMT-0500 (Eastern Standard Time),NA,28,warmup/canary.jpg,swan,This is a ,None,1,birds,linda,canary,yes,Please label the pictures below.,NA,NA,NA,32,NA,,warmup/swan.jpg,birds,higher_degree,english,female,NA,birds,NA,1,1575649767165,1,NA,This is a ,1.00,These are both,NA,canary,warmup2
1249,hummingbird,Fri Dec 06 2019 11:29:27 GMT-0500 (Eastern Standard Time),NA,28,warmup/eagle.jpg,hummingbird,This is a ,None,1,birds,linda,eagle,yes,Please label the pictures below.,NA,NA,NA,32,NA,,warmup/colibri.jpg,birds,higher_degree,english,female,NA,birds,NA,2,1575649767165,1,NA,This is an ,1.00,These are both,NA,eagle,warmup2
1249,goose,Fri Dec 06 2019 11:29:27 GMT-0500 (Eastern Standard Time),NA,28,warmup/sparrow.jpg,goose,This is a ,None,1,birds,linda,sparrow,yes,Please label the pictures below.,NA,NA,NA,32,NA,,warmup/goose.png,birds,higher_degree,english,female,NA,birds,NA,3,1575649767165,1,NA,This is a ,1.00,These are both,NA,sparrow,warmup2
1249,NA,Fri Dec 06 2019 11:29:27 GMT-0500 (Eastern Standard Time),images/bird-parade2.png,28,NA,NA,That ,None,1,birds,linda,NA,yes,You also see this one:,predicative,You say to your friend:,eagle,32,bird,,NA,NA,higher_degree,english,female,,NA,You see the following:,1,1575649767165,NA,images/eagle.png,NA,1.00, is big.,big,NA,main2
1249,NA,Fri Dec 06 2019 11:29:27 GMT-0500 (Eastern Standard Time),images/bird-parade3.png,28,NA,NA,That ,None,1,birds,linda,NA,yes,You also see this one:,predicative,You say to your friend:,swan,32,bird,,NA,NA,higher_degree,english,female,,NA,You see the following:,2,1575649767165,NA,images/swan.png,NA,1.00, is big.,big,NA,main2
1249,NA,Fri Dec 06 2019 11:29:27 GMT-0500 (Eastern Standard Time),images/bird-parade.png,28,NA,NA,That ,None,1,birds,linda,NA,yes,You also see this one:,predicative,You say to your friend:,sparrow,32,bird,,NA,NA,higher_degree,english,female,,NA,You see the following:,3,1575649767165,NA,images/sparrow.png,NA,1.00, is small.,small,NA,main2
1255,dandelion,Fri Dec 06 2019 08:53:20 GMT-0800 (Pacific Standard Time),NA,28,warmup/sunflower.png,dandelion,This is a ,No problems,,flowers,barbara,sunflower,,Please label the pictures below.,NA,NA,NA,,NA,I would never have remembered peony or clownfish without help!,warmup/dandelion.jpg,flowers,,,,NA,flowers,NA,1,1575651200503,1,NA,This is a ,1.00,These are both,NA,sunflower,warmup1
1255,flower,Fri Dec 06 2019 08:53:20 GMT-0800 (Pacific Standard Time),NA,28,warmup/peony.png,daisy,This is a ,No problems,,flowers,barbara,peony,,Please label the pictures below.,NA,NA,NA,,NA,I would never have remembered peony or clownfish without help!,warmup/daisy.png,flowers,,,,NA,flowers,NA,2,1575651200503,1,NA,This is a ,1.00,These are both,NA,flower,warmup1
1255,daisy,Fri Dec 06 2019 08:53:20 GMT-0800 (Pacific Standard Time),NA,28,warmup/peony.png,daisy,This is a ,No problems,,flowers,barbara,peony,,Please label the pictures below.,NA,NA,NA,,NA,I would never have remembered peony or clownfish without help!,warmup/daisy.png,flowers,,,,NA,flowers,NA,2,1575651200503,2,NA,This is a ,1.00,These are both,NA,peony,warmup1
1255,hummingbird,Fri Dec 06 2019 08:53:20 GMT-0800 (Pacific Standard Time),NA,28,warmup/eagle.jpg,hummingbird,This is a ,No problems,,birds,barbara,eagle,,Please label the pictures below.,NA,NA,NA,,NA,I would never have remembered peony or clownfish without help!,warmup/colibri.jpg,birds,,,,NA,birds,NA,3,1575651200503,1,NA,This is an ,1.00,These are both,NA,eagle,warmup1
1255,NA,Fri Dec 06 2019 08:53:20 GMT-0800 (Pacific Standard Time),images/flower-parade2.png,28,NA,NA,That ,No problems,,flowers,barbara,NA,,You also see this one:,predicative,You say to your friend:,dandelion,,flower,I would never have remembered peony or clownfish without help!,NA,NA,,,,,NA,You see the following:,1,1575651200503,NA,images/dandelion.png,NA,1.00, is small.,small,NA,main1
1255,NA,Fri Dec 06 2019 08:53:20 GMT-0800 (Pacific Standard Time),images/flower-parade.png,28,NA,NA,That ,No problems,,flowers,barbara,NA,,You also see this one:,predicative,You say to your friend:,daisy,,daisy,I would never have remembered peony or clownfish without help!,NA,NA,,,,,NA,You see the following:,2,1575651200503,NA,images/daisy.png,NA,1.00, is small.,small,NA,main1
1255,NA,Fri Dec 06 2019 08:53:20 GMT-0800 (Pacific Standard Time),images/bird-parade2.png,28,NA,NA,That ,No problems,,birds,barbara,NA,,You also see this one:,predicative,You say to your friend:,hummingbird,,hummingbird,I would never have remembered peony or clownfish without help!,NA,NA,,,,,NA,You see the following:,3,1575651200503,NA,images/hummingbird.png,NA,1.00, is small.,small,NA,main1
1255,tuna,Fri Dec 06 2019 08:53:20 GMT-0800 (Pacific Standard Time),NA,28,warmup/clownfish.jpg,tuna,This is a ,No problems,,fish,barbara,clownfish,,Please label the pictures below.,NA,NA,NA,,NA,I would never have remembered peony or clownfish without help!,warmup/tuna.jpg,fish,,,,NA,fish,NA,1,1575651200503,1,NA,This is a ,1.00,These are both,NA,tropical fish,warmup2
1255,tuna,Fri Dec 06 2019 08:53:20 GMT-0800 (Pacific Standard Time),NA,28,warmup/clownfish.jpg,tuna,This is a ,No problems,,fish,barbara,clownfish,,Please label the pictures below.,NA,NA,NA,,NA,I would never have remembered peony or clownfish without help!,warmup/tuna.jpg,fish,,,,NA,fish,NA,1,1575651200503,2,NA,This is a ,1.00,These are both,NA,clownfish,warmup2
1255,swordfish,Fri Dec 06 2019 08:53:20 GMT-0800 (Pacific Standard Time),NA,28,warmup/goldfish.png,swordfish,This is a ,No problems,,fish,barbara,goldfish,,Please label the pictures below.,NA,NA,NA,,NA,I would never have remembered peony or clownfish without help!,warmup/swordfish.jpg,fish,,,,NA,fish,NA,2,1575651200503,1,NA,This is a ,1.00,These are both,NA,goldfish,warmup2
1255,swan,Fri Dec 06 2019 08:53:20 GMT-0800 (Pacific Standard Time),NA,28,warmup/canary.jpg,swan,This is a ,No problems,,birds,barbara,canary,,Please label the pictures below.,NA,NA,NA,,NA,I would never have remembered peony or clownfish without help!,warmup/swan.jpg,birds,,,,NA,birds,NA,3,1575651200503,1,NA,This is a ,1.00,These are both,NA,canary,warmup2
1255,NA,Fri Dec 06 2019 08:53:20 GMT-0800 (Pacific Standard Time),images/fish-parade2.png,28,NA,NA,That ,No problems,,fish,barbara,NA,,You also see this one:,predicative,You say to your friend:,tuna,,tuna,I would never have remembered peony or clownfish without help!,NA,NA,,,,,NA,You see the following:,1,1575651200503,NA,images/tuna.png,NA,1.00, is big.,big,NA,main2
1255,NA,Fri Dec 06 2019 08:53:20 GMT-0800 (Pacific Standard Time),images/bird-parade3.png,28,NA,NA,That ,No problems,,birds,barbara,NA,,You also see this one:,predicative,You say to your friend:,swan,,swan,I would never have remembered peony or clownfish without help!,NA,NA,,,,,NA,You see the following:,2,1575651200503,NA,images/swan.png,NA,1.00, is big.,big,NA,main2
1255,NA,Fri Dec 06 2019 08:53:20 GMT-0800 (Pacific Standard Time),images/fish-parade.png,28,NA,NA,That ,No problems,,fish,barbara,NA,,You also see this one:,predicative,You say to your friend:,swordfish,,swordfish,I would never have remembered peony or clownfish without help!,NA,NA,,,,,NA,You see the following:,3,1575651200503,NA,images/swordfish.png,NA,1.00, is big.,big,NA,main2
1260,fish,Fri Dec 06 2019 09:05:33 GMT-0800 (Pacific Standard Time),NA,28,warmup/clownfish.jpg,tuna,This is a ,no,2,fish,elizabeth,clownfish,yes,Please label the pictures below.,NA,NA,NA,30,NA,good,warmup/tuna.jpg,fish,graduated_college,English,male,NA,fish,NA,1,1575651933740,1,NA,This is a ,1,These are both,NA,fish,warmup1
1260,tuna,Fri Dec 06 2019 09:05:33 GMT-0800 (Pacific Standard Time),NA,28,warmup/clownfish.jpg,tuna,This is a ,no,2,fish,elizabeth,clownfish,yes,Please label the pictures below.,NA,NA,NA,30,NA,good,warmup/tuna.jpg,fish,graduated_college,English,male,NA,fish,NA,1,1575651933740,2,NA,This is a ,1,These are both,NA,clownfish,warmup1
1260,tree,Fri Dec 06 2019 09:05:33 GMT-0800 (Pacific Standard Time),NA,28,warmup/bonsai.jpg,redwood|sequoia,This is a ,no,2,trees,elizabeth,bonsai,yes,Please label the pictures below.,NA,NA,NA,30,NA,good,warmup/sequoia.jpg,tree,graduated_college,English,male,NA,trees,NA,2,1575651933740,1,NA,This is a ,1,These are both,NA,tree,warmup1
1260,tree,Fri Dec 06 2019 09:05:33 GMT-0800 (Pacific Standard Time),NA,28,warmup/bonsai.jpg,redwood|sequoia,This is a ,no,2,trees,elizabeth,bonsai,yes,Please label the pictures below.,NA,NA,NA,30,NA,good,warmup/sequoia.jpg,trees,graduated_college,English,male,NA,trees,NA,2,1575651933740,2,NA,This is a ,1,These are both,NA,bonsai,warmup1
1260,sequoia,Fri Dec 06 2019 09:05:33 GMT-0800 (Pacific Standard Time),NA,28,warmup/bonsai.jpg,redwood|sequoia,This is a ,no,2,trees,elizabeth,bonsai,yes,Please label the pictures below.,NA,NA,NA,30,NA,good,warmup/sequoia.jpg,trees,graduated_college,English,male,NA,trees,NA,2,1575651933740,3,NA,This is a ,1,These are both,NA,bonsai,warmup1
1260,birds,Fri Dec 06 2019 09:05:33 GMT-0800 (Pacific Standard Time),NA,28,warmup/sparrow.jpg,goose,This is a ,no,2,birds,elizabeth,sparrow,yes,Please label the pictures below.,NA,NA,NA,30,NA,good,warmup/goose.png,birds,graduated_college,English,male,NA,birds,NA,3,1575651933740,1,NA,This is a ,1,These are both,NA,sparrow,warmup1
1260,goose,Fri Dec 06 2019 09:05:33 GMT-0800 (Pacific Standard Time),NA,28,warmup/sparrow.jpg,goose,This is a ,no,2,birds,elizabeth,sparrow,yes,Please label the pictures below.,NA,NA,NA,30,NA,good,warmup/goose.png,birds,graduated_college,English,male,NA,birds,NA,3,1575651933740,2,NA,This is a ,1,These are both,NA,sparrow,warmup1
1260,NA,Fri Dec 06 2019 09:05:33 GMT-0800 (Pacific Standard Time),images/fish-parade2.png,28,NA,NA,That ,no,2,fish,elizabeth,NA,yes,You also see this one:,predicative,You say to your friend:,clownfish,30,swordfish,good,NA,NA,graduated_college,English,male,,NA,You see the following:,1,1575651933740,NA,images/clownfish.png,NA,1, is small.,small,NA,main1
1260,NA,Fri Dec 06 2019 09:05:33 GMT-0800 (Pacific Standard Time),images/bird-parade.png,28,NA,NA,That ,no,2,birds,elizabeth,NA,yes,You also see this one:,predicative,You say to your friend:,sparrow,30,sparrow,good,NA,NA,graduated_college,English,male,,NA,You see the following:,2,1575651933740,NA,images/sparrow.png,NA,1, is small.,small,NA,main1
1260,NA,Fri Dec 06 2019 09:05:33 GMT-0800 (Pacific Standard Time),images/tree-parade.png,28,NA,NA,That ,no,2,trees,elizabeth,NA,yes,You also see this one:,predicative,You say to your friend:,bonsai,30,tree,good,NA,NA,graduated_college,English,male,,NA,You see the following:,3,1575651933740,NA,images/bonsai.png,NA,1, is small.,small,NA,main1
1260,dog,Fri Dec 06 2019 09:05:33 GMT-0800 (Pacific Standard Time),NA,28,warmup/doberman.png,chihuahua,This is a ,no,2,dogs,elizabeth,doberman,yes,Please label the pictures below.,NA,NA,NA,30,NA,good,warmup/chihuahua.jpg,dogs,graduated_college,English,male,NA,dogs,NA,1,1575651933740,1,NA,This is a ,1,These are both,NA,doberman,warmup2
1260,chihuahua,Fri Dec 06 2019 09:05:33 GMT-0800 (Pacific Standard Time),NA,28,warmup/doberman.png,chihuahua,This is a ,no,2,dogs,elizabeth,doberman,yes,Please label the pictures below.,NA,NA,NA,30,NA,good,warmup/chihuahua.jpg,dogs,graduated_college,English,male,NA,dogs,NA,1,1575651933740,2,NA,This is a ,1,These are both,NA,doberman,warmup2
1260,bird,Fri Dec 06 2019 09:05:33 GMT-0800 (Pacific Standard Time),NA,28,warmup/eagle.jpg,hummingbird,This is a ,no,2,birds,elizabeth,eagle,yes,Please label the pictures below.,NA,NA,NA,30,NA,good,warmup/colibri.jpg,birds,graduated_college,English,male,NA,birds,NA,2,1575651933740,1,NA,This is an ,1,These are both,NA,eagle,warmup2
1260,hummingbird,Fri Dec 06 2019 09:05:33 GMT-0800 (Pacific Standard Time),NA,28,warmup/eagle.jpg,hummingbird,This is a ,no,2,birds,elizabeth,eagle,yes,Please label the pictures below.,NA,NA,NA,30,NA,good,warmup/colibri.jpg,birds,graduated_college,English,male,NA,birds,NA,2,1575651933740,2,NA,This is an ,1,These are both,NA,eagle,warmup2
1260,flower,Fri Dec 06 2019 09:05:33 GMT-0800 (Pacific Standard Time),NA,28,warmup/sunflower.png,dandelion,This is a ,no,2,flowers,elizabeth,sunflower,yes,Please label the pictures below.,NA,NA,NA,30,NA,good,warmup/dandelion.jpg,flowers,graduated_college,English,male,NA,flowers,NA,3,1575651933740,1,NA,This is a ,1,These are both,NA,sunflower,warmup2
1260,dandelion,Fri Dec 06 2019 09:05:33 GMT-0800 (Pacific Standard Time),NA,28,warmup/sunflower.png,dandelion,This is a ,no,2,flowers,elizabeth,sunflower,yes,Please label the pictures below.,NA,NA,NA,30,NA,good,warmup/dandelion.jpg,flowers,graduated_college,English,male,NA,flowers,NA,3,1575651933740,2,NA,This is a ,1,These are both,NA,sunflower,warmup2
1260,NA,Fri Dec 06 2019 09:05:33 GMT-0800 (Pacific Standard Time),images/dog-parade.png,28,NA,NA,That ,no,2,dogs,elizabeth,NA,yes,You also see this one:,predicative,You say to your friend:,doberman,30,dobermab,good,NA,NA,graduated_college,English,male,,NA,You see the following:,1,1575651933740,NA,images/doberman.png,NA,1, is big.,big,NA,main2
1260,NA,Fri Dec 06 2019 09:05:33 GMT-0800 (Pacific Standard Time),images/bird-parade2.png,28,NA,NA,That ,no,2,birds,elizabeth,NA,yes,You also see this one:,predicative,You say to your friend:,eagle,30,eagle,good,NA,NA,graduated_college,English,male,,NA,You see the following:,2,1575651933740,NA,images/eagle.png,NA,1, is big.,big,NA,main2
1260,NA,Fri Dec 06 2019 09:05:33 GMT-0800 (Pacific Standard Time),images/flower-parade2.png,28,NA,NA,That ,no,2,flowers,elizabeth,NA,yes,You also see this one:,predicative,You say to your friend:,sunflower,30,sunflower,good,NA,NA,graduated_college,English,male,,NA,You see the following:,3,1575651933740,NA,images/sunflower.png,NA,1, is big.,big,NA,main2
1292,flower,Mon Dec 09 2019 15:22:03 GMT-0500 (Eastern Standard Time),NA,28,warmup/sunflower.png,dandelion,This is a ,no,1,flowers,Jessica,sunflower,yes,Please label the pictures below.,NA,NA,NA,31,NA,,warmup/dandelion.jpg,flowers,some_college,English,male,NA,flowers,NA,1,1575922923195,1,NA,This is a ,1,These are both,NA,sunflower,warmup1
1292,dandelion,Mon Dec 09 2019 15:22:03 GMT-0500 (Eastern Standard Time),NA,28,warmup/sunflower.png,dandelion,This is a ,no,1,flowers,Jessica,sunflower,yes,Please label the pictures below.,NA,NA,NA,31,NA,,warmup/dandelion.jpg,flowers,some_college,English,male,NA,flowers,NA,1,1575922923195,2,NA,This is a ,1,These are both,NA,sunflower,warmup1
1292,hummingbird,Mon Dec 09 2019 15:22:03 GMT-0500 (Eastern Standard Time),NA,28,warmup/eagle.jpg,hummingbird,This is a ,no,1,birds,Jessica,eagle,yes,Please label the pictures below.,NA,NA,NA,31,NA,,warmup/colibri.jpg,birds,some_college,English,male,NA,birds,NA,2,1575922923195,1,NA,This is an ,1,These are both,NA,eagle,warmup1
1292,swordfish,Mon Dec 09 2019 15:22:03 GMT-0500 (Eastern Standard Time),NA,28,warmup/goldfish.png,swordfish,This is a ,no,1,fish,Jessica,goldfish,yes,Please label the pictures below.,NA,NA,NA,31,NA,,warmup/swordfish.jpg,fish,some_college,English,male,NA,fish,NA,3,1575922923195,1,NA,This is a ,1,These are both,NA,goldfish,warmup1
1292,NA,Mon Dec 09 2019 15:22:03 GMT-0500 (Eastern Standard Time),images/bird-parade2.png,28,NA,NA,That ,no,1,birds,Jessica,NA,yes,You also see this one:,predicative,You say to your friend:,hummingbird,31,hummingbird,,NA,NA,some_college,English,male,,NA,You see the following:,1,1575922923195,NA,images/hummingbird.png,NA,1, is small.,small,NA,main1
1292,NA,Mon Dec 09 2019 15:22:03 GMT-0500 (Eastern Standard Time),images/fish-parade.png,28,NA,NA,That ,no,1,fish,Jessica,NA,yes,You also see this one:,predicative,You say to your friend:,swordfish,31,swordfish,,NA,NA,some_college,English,male,,NA,You see the following:,2,1575922923195,NA,images/swordfish.png,NA,1, is big.,big,NA,main1
1292,NA,Mon Dec 09 2019 15:22:03 GMT-0500 (Eastern Standard Time),images/flower-parade2.png,28,NA,NA,That ,no,1,flowers,Jessica,NA,yes,You also see this one:,predicative,You say to your friend:,sunflower,31,sunflower,,NA,NA,some_college,English,male,,NA,You see the following:,3,1575922923195,NA,images/sunflower.png,NA,1, is big.,big,NA,main1
1292,dog,Mon Dec 09 2019 15:22:03 GMT-0500 (Eastern Standard Time),NA,28,warmup/doberman.png,chihuahua,This is a ,no,1,dogs,Jessica,doberman,yes,Please label the pictures below.,NA,NA,NA,31,NA,,warmup/chihuahua.jpg,dog,some_college,English,male,NA,dogs,NA,1,1575922923195,1,NA,This is a ,1,These are both,NA,hound,warmup2
