submission_id,response1,startDate,context_picture,experiment_id,picture2,correct1,question1,problems,enjoyment,item,botresponse,correct2,understand,text,condition,sentence,target,age,response,comments,picture1,response3,education,languages,sex,RT,correct3,context,trial_number,startTime,attempts,picture,question3,fairprice,question2,size,response2,trial_name,
1161,tree,Fri Dec 06 2019 10:55:55 GMT-0500 (Eastern Standard Time),NA,29,warmup/bonsai.jpg,redwood|sequoia,This is a ,No,2,trees,margaret,bonsai,,Please label the pictures below.,NA,NA,NA,34,NA,None.,warmup/sequoia.jpg,trees,graduated_college,English,male,NA,trees,NA,1,1575647755303,1,NA,This is a ,1.00,These are both,NA,bush,warmup1,
1161,redwood,Fri Dec 06 2019 10:55:55 GMT-0500 (Eastern Standard Time),NA,29,warmup/bonsai.jpg,redwood|sequoia,This is a ,No,2,trees,margaret,bonsai,,Please label the pictures below.,NA,NA,NA,34,NA,None.,warmup/sequoia.jpg,trees,graduated_college,English,male,NA,trees,NA,1,1575647755303,2,NA,This is a ,1.00,These are both,NA,bonsai,warmup1,
1161,flower,Fri Dec 06 2019 10:55:55 GMT-0500 (Eastern Standard Time),NA,29,warmup/peony.png,daisy,This is a ,No,2,flowers,margaret,peony,,Please label the pictures below.,NA,NA,NA,34,NA,None.,warmup/daisy.png,flowers,graduated_college,English,male,NA,flowers,NA,2,1575647755303,1,NA,This is a ,1.00,These are both,NA,big flower,warmup1,
1161,daisy,Fri Dec 06 2019 10:55:55 GMT-0500 (Eastern Standard Time),NA,29,warmup/peony.png,daisy,This is a ,No,2,flowers,margaret,peony,,Please label the pictures below.,NA,NA,NA,34,NA,None.,warmup/daisy.png,flowers,graduated_college,English,male,NA,flowers,NA,2,1575647755303,2,NA,This is a ,1.00,These are both,NA,peony,warmup1,
1161,dandelion,Fri Dec 06 2019 10:55:55 GMT-0500 (Eastern Standard Time),NA,29,warmup/sunflower.png,dandelion,This is a ,No,2,flowers,margaret,sunflower,,Please label the pictures below.,NA,NA,NA,34,NA,None.,warmup/dandelion.jpg,flowers,graduated_college,English,male,NA,flowers,NA,3,1575647755303,1,NA,This is a ,1.00,These are both,NA,sunflower,warmup1,
1161,NA,Fri Dec 06 2019 10:55:55 GMT-0500 (Eastern Standard Time),images/flower-parade2.png,29,NA,NA,That's a small ,No,2,flowers,margaret,NA,,You also see this one:,prenominal,You say to your friend:,dandelion,34,dandelion,None.,NA,NA,graduated_college,English,male,,NA,You see the following:,1,1575647755303,NA,images/dandelion.png,NA,1.00,,small,NA,main1,
1161,NA,Fri Dec 06 2019 10:55:55 GMT-0500 (Eastern Standard Time),images/tree-parade.png,29,NA,NA,That's a small ,No,2,trees,margaret,NA,,You also see this one:,prenominal,You say to your friend:,bonsai,34,bonsai,None.,NA,NA,graduated_college,English,male,,NA,You see the following:,2,1575647755303,NA,images/bonsai.png,NA,1.00,,small,NA,main1,
1161,NA,Fri Dec 06 2019 10:55:55 GMT-0500 (Eastern Standard Time),images/flower-parade.png,29,NA,NA,That's a big ,No,2,flowers,margaret,NA,,You also see this one:,prenominal,You say to your friend:,peony,34,peony,None.,NA,NA,graduated_college,English,male,,NA,You see the following:,3,1575647755303,NA,images/peony.png,NA,1.00,,big,NA,main1,
1161,swan,Fri Dec 06 2019 10:55:55 GMT-0500 (Eastern Standard Time),NA,29,warmup/canary.jpg,swan,This is a ,No,2,birds,margaret,canary,,Please label the pictures below.,NA,NA,NA,34,NA,None.,warmup/swan.jpg,birds,graduated_college,English,male,NA,birds,NA,1,1575647755303,1,NA,This is a ,1.00,These are both,NA,bird,warmup2,
1161,swan,Fri Dec 06 2019 10:55:55 GMT-0500 (Eastern Standard Time),NA,29,warmup/canary.jpg,swan,This is a ,No,2,birds,margaret,canary,,Please label the pictures below.,NA,NA,NA,34,NA,None.,warmup/swan.jpg,birds,graduated_college,English,male,NA,birds,NA,1,1575647755303,2,NA,This is a ,1.00,These are both,NA,canary,warmup2,
1161,poodle,Fri Dec 06 2019 10:55:55 GMT-0500 (Eastern Standard Time),NA,29,warmup/great-dane.jpg,pug,This is a ,No,2,dogs,margaret,great dane,,Please label the pictures below.,NA,NA,NA,34,NA,None.,warmup/pug.jpg,dogs,graduated_college,English,male,NA,dogs,NA,2,1575647755303,1,NA,This is a ,1.00,These are both,NA,dog,warmup2,
1161,pug,Fri Dec 06 2019 10:55:55 GMT-0500 (Eastern Standard Time),NA,29,warmup/great-dane.jpg,pug,This is a ,No,2,dogs,margaret,great dane,,Please label the pictures below.,NA,NA,NA,34,NA,None.,warmup/pug.jpg,dogs,graduated_college,English,male,NA,dogs,NA,2,1575647755303,2,NA,This is a ,1.00,These are both,NA,great dane,warmup2,
1161,swordfish,Fri Dec 06 2019 10:55:55 GMT-0500 (Eastern Standard Time),NA,29,warmup/goldfish.png,swordfish,This is a ,No,2,fish,margaret,goldfish,,Please label the pictures below.,NA,NA,NA,34,NA,None.,warmup/swordfish.jpg,fish,graduated_college,English,male,NA,fish,NA,3,1575647755303,1,NA,This is a ,1.00,These are both,NA,goldfish,warmup2,
1161,NA,Fri Dec 06 2019 10:55:55 GMT-0500 (Eastern Standard Time),images/bird-parade3.png,29,NA,NA,That's a small ,No,2,birds,margaret,NA,,You also see this one:,prenominal,You say to your friend:,canary,34,canary,None.,NA,NA,graduated_college,English,male,,NA,You see the following:,1,1575647755303,NA,images/canary.png,NA,1.00,,small,NA,main2,
1161,NA,Fri Dec 06 2019 10:55:55 GMT-0500 (Eastern Standard Time),images/fish-parade.png,29,NA,NA,That's a big ,No,2,fish,margaret,NA,,You also see this one:,prenominal,You say to your friend:,swordfish,34,swordfish,None.,NA,NA,graduated_college,English,male,,NA,You see the following:,2,1575647755303,NA,images/swordfish.png,NA,1.00,,big,NA,main2,
1161,NA,Fri Dec 06 2019 10:55:55 GMT-0500 (Eastern Standard Time),images/dog-parade2.png,29,NA,NA,That's a big ,No,2,dogs,margaret,NA,,You also see this one:,prenominal,You say to your friend:,great dane,34,great dane,None.,NA,NA,graduated_college,English,male,,NA,You see the following:,3,1575647755303,NA,images/great-dane.png,NA,1.00,,big,NA,main2,
1230,daisy,Fri Dec 06 2019 11:11:58 GMT-0500 (Eastern Standard Time),NA,29,warmup/peony.png,daisy,This is a ,no,2,flowers,jessica,peony,yes,Please label the pictures below.,NA,NA,NA,58,NA,Please pay me,warmup/daisy.png,flowers,some_college,"english, spanish",female,NA,flowers,NA,1,1575648718163,1,NA,This is a ,,These are both,NA,rose,warmup1,
1230,daisy,Fri Dec 06 2019 11:11:58 GMT-0500 (Eastern Standard Time),NA,29,warmup/peony.png,daisy,This is a ,no,2,flowers,jessica,peony,yes,Please label the pictures below.,NA,NA,NA,58,NA,Please pay me,warmup/daisy.png,flowers,some_college,"english, spanish",female,NA,flowers,NA,1,1575648718163,2,NA,This is a ,,These are both,NA,rose,warmup1,
1230,daisy,Fri Dec 06 2019 11:11:58 GMT-0500 (Eastern Standard Time),NA,29,warmup/peony.png,daisy,This is a ,no,2,flowers,jessica,peony,yes,Please label the pictures below.,NA,NA,NA,58,NA,Please pay me,warmup/daisy.png,flowers,some_college,"english, spanish",female,NA,flowers,NA,1,1575648718163,3,NA,This is a ,,These are both,NA,peony,warmup1,
1230,pug,Fri Dec 06 2019 11:11:58 GMT-0500 (Eastern Standard Time),NA,29,warmup/great-dane.jpg,pug,This is a ,no,2,dogs,jessica,great dane,yes,Please label the pictures below.,NA,NA,NA,58,NA,Please pay me,warmup/pug.jpg,dogs,some_college,"english, spanish",female,NA,dogs,NA,2,1575648718163,1,NA,This is a ,,These are both,NA,labrador,warmup1,
1230,pug,Fri Dec 06 2019 11:11:58 GMT-0500 (Eastern Standard Time),NA,29,warmup/great-dane.jpg,pug,This is a ,no,2,dogs,jessica,great dane,yes,Please label the pictures below.,NA,NA,NA,58,NA,Please pay me,warmup/pug.jpg,dogs,some_college,"english, spanish",female,NA,dogs,NA,2,1575648718163,2,NA,This is a ,,These are both,NA,great dane,warmup1,
1230,chiuaua,Fri Dec 06 2019 11:11:58 GMT-0500 (Eastern Standard Time),NA,29,warmup/doberman.png,chihuahua,This is a ,no,2,dogs,jessica,doberman,yes,Please label the pictures below.,NA,NA,NA,58,NA,Please pay me,warmup/chihuahua.jpg,dogs,some_college,"english, spanish",female,NA,dogs,NA,3,1575648718163,1,NA,This is a ,,These are both,NA,doberman,warmup1,
1230,chihuahua,Fri Dec 06 2019 11:11:58 GMT-0500 (Eastern Standard Time),NA,29,warmup/doberman.png,chihuahua,This is a ,no,2,dogs,jessica,doberman,yes,Please label the pictures below.,NA,NA,NA,58,NA,Please pay me,warmup/chihuahua.jpg,dogs,some_college,"english, spanish",female,NA,dogs,NA,3,1575648718163,2,NA,This is a ,,These are both,NA,doberman,warmup1,
1230,NA,Fri Dec 06 2019 11:11:58 GMT-0500 (Eastern Standard Time),images/dog-parade.png,29,NA,NA,That's a small ,no,2,dogs,jessica,NA,yes,You also see this one:,prenominal,You say to your friend:,chihuahua,58,chihuahua,Please pay me,NA,NA,some_college,"english, spanish",female,,NA,You see the following:,1,1575648718163,NA,images/chihuahua.png,NA,,,small,NA,main1,
1230,NA,Fri Dec 06 2019 11:11:58 GMT-0500 (Eastern Standard Time),images/flower-parade.png,29,NA,NA,That's a big ,no,2,flowers,jessica,NA,yes,You also see this one:,prenominal,You say to your friend:,peony,58,peony,Please pay me,NA,NA,some_college,"english, spanish",female,,NA,You see the following:,2,1575648718163,NA,images/peony.png,NA,,,big,NA,main1,
1230,NA,Fri Dec 06 2019 11:11:58 GMT-0500 (Eastern Standard Time),images/dog-parade2.png,29,NA,NA,That's a small ,no,2,dogs,jessica,NA,yes,You also see this one:,prenominal,You say to your friend:,pug,58,pug,Please pay me,NA,NA,some_college,"english, spanish",female,,NA,You see the following:,3,1575648718163,NA,images/pug.png,NA,,,small,NA,main1,
1230,tuna fish,Fri Dec 06 2019 11:11:58 GMT-0500 (Eastern Standard Time),NA,29,warmup/clownfish.jpg,tuna,This is a ,no,2,fish,jessica,clownfish,yes,Please label the pictures below.,NA,NA,NA,58,NA,Please pay me,warmup/tuna.jpg,fish,some_college,"english, spanish",female,NA,fish,NA,1,1575648718163,1,NA,This is a ,,These are both,NA,clown fish,warmup2,
1230,tuna,Fri Dec 06 2019 11:11:58 GMT-0500 (Eastern Standard Time),NA,29,warmup/clownfish.jpg,tuna,This is a ,no,2,fish,jessica,clownfish,yes,Please label the pictures below.,NA,NA,NA,58,NA,Please pay me,warmup/tuna.jpg,fish,some_college,"english, spanish",female,NA,fish,NA,1,1575648718163,2,NA,This is a ,,These are both,NA,clownfish,warmup2,
1230,swordfish,Fri Dec 06 2019 11:11:58 GMT-0500 (Eastern Standard Time),NA,29,warmup/goldfish.png,swordfish,This is a ,no,2,fish,jessica,goldfish,yes,Please label the pictures below.,NA,NA,NA,58,NA,Please pay me,warmup/swordfish.jpg,fish,some_college,"english, spanish",female,NA,fish,NA,2,1575648718163,1,NA,This is a ,,These are both,NA,guppie,warmup2,
1230,swordfish,Fri Dec 06 2019 11:11:58 GMT-0500 (Eastern Standard Time),NA,29,warmup/goldfish.png,swordfish,This is a ,no,2,fish,jessica,goldfish,yes,Please label the pictures below.,NA,NA,NA,58,NA,Please pay me,warmup/swordfish.jpg,fish,some_college,"english, spanish",female,NA,fish,NA,2,1575648718163,2,NA,This is a ,,These are both,NA,goldfish,warmup2,
1230,pine,Fri Dec 06 2019 11:11:58 GMT-0500 (Eastern Standard Time),NA,29,warmup/bonsai.jpg,redwood|sequoia,This is a ,no,2,trees,jessica,bonsai,yes,Please label the pictures below.,NA,NA,NA,58,NA,Please pay me,warmup/sequoia.jpg,trees,some_college,"english, spanish",female,NA,trees,NA,3,1575648718163,1,NA,This is a ,,These are both,NA,shrub,warmup2,
1230,"redwood, sequoia",Fri Dec 06 2019 11:11:58 GMT-0500 (Eastern Standard Time),NA,29,warmup/bonsai.jpg,redwood|sequoia,This is a ,no,2,trees,jessica,bonsai,yes,Please label the pictures below.,NA,NA,NA,58,NA,Please pay me,warmup/sequoia.jpg,trees,some_college,"english, spanish",female,NA,trees,NA,3,1575648718163,2,NA,This is a ,,These are both,NA,bonsai,warmup2,
1230,"redwood,sequoia",Fri Dec 06 2019 11:11:58 GMT-0500 (Eastern Standard Time),NA,29,warmup/bonsai.jpg,redwood|sequoia,This is a ,no,2,trees,jessica,bonsai,yes,Please label the pictures below.,NA,NA,NA,58,NA,Please pay me,warmup/sequoia.jpg,trees,some_college,"english, spanish",female,NA,trees,NA,3,1575648718163,3,NA,This is a ,,These are both,NA,bonsai,warmup2,
1230,redwood,Fri Dec 06 2019 11:11:58 GMT-0500 (Eastern Standard Time),NA,29,warmup/bonsai.jpg,redwood|sequoia,This is a ,no,2,trees,jessica,bonsai,yes,Please label the pictures below.,NA,NA,NA,58,NA,Please pay me,warmup/sequoia.jpg,trees,some_college,"english, spanish",female,NA,trees,NA,3,1575648718163,4,NA,This is a ,,These are both,NA,bonsai,warmup2,
1230,NA,Fri Dec 06 2019 11:11:58 GMT-0500 (Eastern Standard Time),images/tree-parade.png,29,NA,NA,That's a small ,no,2,trees,jessica,NA,yes,You also see this one:,prenominal,You say to your friend:,bonsai,58,bonsai,Please pay me,NA,NA,some_college,"english, spanish",female,,NA,You see the following:,1,1575648718163,NA,images/bonsai.png,NA,,,small,NA,main2,
1230,NA,Fri Dec 06 2019 11:11:58 GMT-0500 (Eastern Standard Time),images/fish-parade.png,29,NA,NA,That's a big ,no,2,fish,jessica,NA,yes,You also see this one:,prenominal,You say to your friend:,swordfish,58,swordfish,Please pay me,NA,NA,some_college,"english, spanish",female,,NA,You see the following:,2,1575648718163,NA,images/swordfish.png,NA,,,big,NA,main2,
1230,NA,Fri Dec 06 2019 11:11:58 GMT-0500 (Eastern Standard Time),images/fish-parade2.png,29,NA,NA,That's a big ,no,2,fish,jessica,NA,yes,You also see this one:,prenominal,You say to your friend:,tuna,58,tuna,Please pay me,NA,NA,some_college,"english, spanish",female,,NA,You see the following:,3,1575648718163,NA,images/tuna.png,NA,,,big,NA,main2,
1257,duck,Fri Dec 06 2019 12:03:04 GMT-0500 (Eastern Standard Time),NA,29,warmup/sparrow.jpg,goose,This is a ,no,1,birds,susan,sparrow,yes,Please label the pictures below.,NA,NA,NA,58,NA,,warmup/goose.png,birds,some_college,English,female,NA,birds,NA,1,1575651784254,1,NA,This is a ,1.25,These are both,NA,sparrow,warmup1,
1257,goose,Fri Dec 06 2019 12:03:04 GMT-0500 (Eastern Standard Time),NA,29,warmup/sparrow.jpg,goose,This is a ,no,1,birds,susan,sparrow,yes,Please label the pictures below.,NA,NA,NA,58,NA,,warmup/goose.png,birds,some_college,English,female,NA,birds,NA,1,1575651784254,2,NA,This is a ,1.25,These are both,NA,sparrow,warmup1,
1257,dandelion,Fri Dec 06 2019 12:03:04 GMT-0500 (Eastern Standard Time),NA,29,warmup/sunflower.png,dandelion,This is a ,no,1,flowers,susan,sunflower,yes,Please label the pictures below.,NA,NA,NA,58,NA,,warmup/dandelion.jpg,flowers,some_college,English,female,NA,flowers,NA,2,1575651784254,1,NA,This is a ,1.25,These are both,NA,sunflower,warmup1,
1257,swan,Fri Dec 06 2019 12:03:04 GMT-0500 (Eastern Standard Time),NA,29,warmup/canary.jpg,swan,This is a ,no,1,birds,susan,canary,yes,Please label the pictures below.,NA,NA,NA,58,NA,,warmup/swan.jpg,birds,some_college,English,female,NA,birds,NA,3,1575651784254,1,NA,This is a ,1.25,These are both,NA,parakeet,warmup1,
1257,swan,Fri Dec 06 2019 12:03:04 GMT-0500 (Eastern Standard Time),NA,29,warmup/canary.jpg,swan,This is a ,no,1,birds,susan,canary,yes,Please label the pictures below.,NA,NA,NA,58,NA,,warmup/swan.jpg,birds,some_college,English,female,NA,birds,NA,3,1575651784254,2,NA,This is a ,1.25,These are both,NA,canary,warmup1,
1257,NA,Fri Dec 06 2019 12:03:04 GMT-0500 (Eastern Standard Time),images/flower-parade2.png,29,NA,NA,That's a big ,no,1,flowers,susan,NA,yes,You also see this one:,prenominal,You say to your friend:,sunflower,58,sunflower,,NA,NA,some_college,English,female,,NA,You see the following:,1,1575651784254,NA,images/sunflower.png,NA,1.25,,big,NA,main1,
1257,NA,Fri Dec 06 2019 12:03:04 GMT-0500 (Eastern Standard Time),images/bird-parade3.png,29,NA,NA,That's a small ,no,1,birds,susan,NA,yes,You also see this one:,prenominal,You say to your friend:,canary,58,canary,,NA,NA,some_college,English,female,,NA,You see the following:,2,1575651784254,NA,images/canary.png,NA,1.25,,small,NA,main1,
1257,NA,Fri Dec 06 2019 12:03:04 GMT-0500 (Eastern Standard Time),images/bird-parade.png,29,NA,NA,That's a small ,no,1,birds,susan,NA,yes,You also see this one:,prenominal,You say to your friend:,sparrow,58,sparrow,,NA,NA,some_college,English,female,,NA,You see the following:,3,1575651784254,NA,images/sparrow.png,NA,1.25,,small,NA,main1,
1257,Chihuahua,Fri Dec 06 2019 12:03:04 GMT-0500 (Eastern Standard Time),NA,29,warmup/doberman.png,chihuahua,This is a ,no,1,dogs,susan,doberman,yes,Please label the pictures below.,NA,NA,NA,58,NA,,warmup/chihuahua.jpg,dogs,some_college,English,female,NA,dogs,NA,1,1575651784254,1,NA,This is a ,1.25,These are both,NA,pointer,warmup2,
1257,Chihuahua,Fri Dec 06 2019 12:03:04 GMT-0500 (Eastern Standard Time),NA,29,warmup/doberman.png,chihuahua,This is a ,no,1,dogs,susan,doberman,yes,Please label the pictures below.,NA,NA,NA,58,NA,,warmup/chihuahua.jpg,dogs,some_college,English,female,NA,dogs,NA,1,1575651784254,2,NA,This is a ,1.25,These are both,NA,doberman,warmup2,
1257,daisy,Fri Dec 06 2019 12:03:04 GMT-0500 (Eastern Standard Time),NA,29,warmup/peony.png,daisy,This is a ,no,1,flowers,susan,peony,yes,Please label the pictures below.,NA,NA,NA,58,NA,,warmup/daisy.png,flowers,some_college,English,female,NA,flowers,NA,2,1575651784254,1,NA,This is a ,1.25,These are both,NA,rose,warmup2,
1257,daisy,Fri Dec 06 2019 12:03:04 GMT-0500 (Eastern Standard Time),NA,29,warmup/peony.png,daisy,This is a ,no,1,flowers,susan,peony,yes,Please label the pictures below.,NA,NA,NA,58,NA,,warmup/daisy.png,flowers,some_college,English,female,NA,flowers,NA,2,1575651784254,2,NA,This is a ,1.25,These are both,NA,peony,warmup2,
1257,shark,Fri Dec 06 2019 12:03:04 GMT-0500 (Eastern Standard Time),NA,29,warmup/clownfish.jpg,tuna,This is a ,no,1,fish,susan,clownfish,yes,Please label the pictures below.,NA,NA,NA,58,NA,,warmup/tuna.jpg,fish,some_college,English,female,NA,fish,NA,3,1575651784254,1,NA,This is a ,1.25,These are both,NA,goldfish,warmup2,
1257,tuna,Fri Dec 06 2019 12:03:04 GMT-0500 (Eastern Standard Time),NA,29,warmup/clownfish.jpg,tuna,This is a ,no,1,fish,susan,clownfish,yes,Please label the pictures below.,NA,NA,NA,58,NA,,warmup/tuna.jpg,fish,some_college,English,female,NA,fish,NA,3,1575651784254,2,NA,This is a ,1.25,These are both,NA,clownfish,warmup2,
1257,NA,Fri Dec 06 2019 12:03:04 GMT-0500 (Eastern Standard Time),images/dog-parade.png,29,NA,NA,That's a big ,no,1,dogs,susan,NA,yes,You also see this one:,prenominal,You say to your friend:,doberman,58,doberman,,NA,NA,some_college,English,female,,NA,You see the following:,1,1575651784254,NA,images/doberman.png,NA,1.25,,big,NA,main2,
1257,NA,Fri Dec 06 2019 12:03:04 GMT-0500 (Eastern Standard Time),images/flower-parade.png,29,NA,NA,That's a big ,no,1,flowers,susan,NA,yes,You also see this one:,prenominal,You say to your friend:,peony,58,peony,,NA,NA,some_college,English,female,,NA,You see the following:,2,1575651784254,NA,images/peony.png,NA,1.25,,big,NA,main2,
1257,NA,Fri Dec 06 2019 12:03:04 GMT-0500 (Eastern Standard Time),images/fish-parade2.png,29,NA,NA,That's a small ,no,1,fish,susan,NA,yes,You also see this one:,prenominal,You say to your friend:,clownfish,58,clownfish,,NA,NA,some_college,English,female,,NA,You see the following:,3,1575651784254,NA,images/clownfish.png,NA,1.25,,small,NA,main2,
1289,pug,Mon Dec 09 2019 15:20:09 GMT-0500 (Eastern Standard Time),NA,29,warmup/great-dane.jpg,pug,This is a ,no,1,dogs,Barbara,great dane,yes,Please label the pictures below.,NA,NA,NA,60,NA,,warmup/pug.jpg,dogs,graduated_college,English,female,NA,dogs,NA,1,1575922809738,1,NA,This is a ,1,These are both,NA,great dane,warmup1,
1289,swordfish,Mon Dec 09 2019 15:20:09 GMT-0500 (Eastern Standard Time),NA,29,warmup/goldfish.png,swordfish,This is a ,no,1,fish,Barbara,goldfish,yes,Please label the pictures below.,NA,NA,NA,60,NA,,warmup/swordfish.jpg,fish,graduated_college,English,female,NA,fish,NA,2,1575922809738,1,NA,This is a ,1,These are both,NA,goldfish,warmup1,
1289,dandilion,Mon Dec 09 2019 15:20:09 GMT-0500 (Eastern Standard Time),NA,29,warmup/peony.png,daisy,This is a ,no,1,flowers,Barbara,peony,yes,Please label the pictures below.,NA,NA,NA,60,NA,,warmup/daisy.png,flowers,graduated_college,English,female,NA,flowers,NA,3,1575922809738,1,NA,This is a ,1,These are both,NA,iris,warmup1,
1289,daisy,Mon Dec 09 2019 15:20:09 GMT-0500 (Eastern Standard Time),NA,29,warmup/peony.png,daisy,This is a ,no,1,flowers,Barbara,peony,yes,Please label the pictures below.,NA,NA,NA,60,NA,,warmup/daisy.png,flowers,graduated_college,English,female,NA,flowers,NA,3,1575922809738,2,NA,This is a ,1,These are both,NA,peony,warmup1,
1289,NA,Mon Dec 09 2019 15:20:09 GMT-0500 (Eastern Standard Time),images/fish-parade.png,29,NA,NA,That's a small ,no,1,fish,Barbara,NA,yes,You also see this one:,prenominal,You say to your friend:,goldfish,60,goldfish,,NA,NA,graduated_college,English,female,,NA,You see the following:,1,1575922809738,NA,images/goldfish.png,NA,1,,small,NA,main1,
1289,NA,Mon Dec 09 2019 15:20:09 GMT-0500 (Eastern Standard Time),images/dog-parade2.png,29,NA,NA,That's a big ,no,1,dogs,Barbara,NA,yes,You also see this one:,prenominal,You say to your friend:,great dane,60,great dane,,NA,NA,graduated_college,English,female,,NA,You see the following:,2,1575922809738,NA,images/great-dane.png,NA,1,,big,NA,main1,
1289,NA,Mon Dec 09 2019 15:20:09 GMT-0500 (Eastern Standard Time),images/flower-parade.png,29,NA,NA,That's a big ,no,1,flowers,Barbara,NA,yes,You also see this one:,prenominal,You say to your friend:,peony,60,peony,,NA,NA,graduated_college,English,female,,NA,You see the following:,3,1575922809738,NA,images/peony.png,NA,1,,big,NA,main1,
1289,hummingbird,Mon Dec 09 2019 15:20:09 GMT-0500 (Eastern Standard Time),NA,29,warmup/eagle.jpg,hummingbird,This is a ,no,1,birds,Barbara,eagle,yes,Please label the pictures below.,NA,NA,NA,60,NA,,warmup/colibri.jpg,birds,graduated_college,English,female,NA,birds,NA,1,1575922809738,1,NA,This is an ,1,These are both,NA,eagle,warmup2,
1289,chihaua,Mon Dec 09 2019 15:20:09 GMT-0500 (Eastern Standard Time),NA,29,warmup/doberman.png,chihuahua,This is a ,no,1,dogs,Barbara,doberman,yes,Please label the pictures below.,NA,NA,NA,60,NA,,warmup/chihuahua.jpg,dogs,graduated_college,English,female,NA,dogs,NA,2,1575922809738,1,NA,This is a ,1,These are both,NA,doberman,warmup2,
1289,chihauhua,Mon Dec 09 2019 15:20:09 GMT-0500 (Eastern Standard Time),NA,29,warmup/doberman.png,chihuahua,This is a ,no,1,dogs,Barbara,doberman,yes,Please label the pictures below.,NA,NA,NA,60,NA,,warmup/chihuahua.jpg,dogs,graduated_college,English,female,NA,dogs,NA,2,1575922809738,2,NA,This is a ,1,These are both,NA,doberman,warmup2,
1289,chihauhua,Mon Dec 09 2019 15:20:09 GMT-0500 (Eastern Standard Time),NA,29,warmup/doberman.png,chihuahua,This is a ,no,1,dogs,Barbara,doberman,yes,Please label the pictures below.,NA,NA,NA,60,NA,,warmup/chihuahua.jpg,dogs,graduated_college,English,female,NA,dogs,NA,2,1575922809738,3,NA,This is a ,1,These are both,NA,doberman,warmup2,
1289,chihuahua,Mon Dec 09 2019 15:20:09 GMT-0500 (Eastern Standard Time),NA,29,warmup/doberman.png,chihuahua,This is a ,no,1,dogs,Barbara,doberman,yes,Please label the pictures below.,NA,NA,NA,60,NA,,warmup/chihuahua.jpg,dogs,graduated_college,English,female,NA,dogs,NA,2,1575922809738,4,NA,This is a ,1,These are both,NA,doberman,warmup2,
1289,fish,Mon Dec 09 2019 15:20:09 GMT-0500 (Eastern Standard Time),NA,29,warmup/clownfish.jpg,tuna,This is a ,no,1,fish,Barbara,clownfish,yes,Please label the pictures below.,NA,NA,NA,60,NA,,warmup/tuna.jpg,fish,graduated_college,English,female,NA,fish,NA,3,1575922809738,1,NA,This is a ,1,These are both,NA,lionfish,warmup2,
1289,tuna,Mon Dec 09 2019 15:20:09 GMT-0500 (Eastern Standard Time),NA,29,warmup/clownfish.jpg,tuna,This is a ,no,1,fish,Barbara,clownfish,yes,Please label the pictures below.,NA,NA,NA,60,NA,,warmup/tuna.jpg,fish,graduated_college,English,female,NA,fish,NA,3,1575922809738,2,NA,This is a ,1,These are both,NA,clownfish,warmup2,
1289,NA,Mon Dec 09 2019 15:20:09 GMT-0500 (Eastern Standard Time),images/fish-parade2.png,29,NA,NA,That's a small ,no,1,fish,Barbara,NA,yes,You also see this one:,prenominal,You say to your friend:,clownfish,60,clownfish,,NA,NA,graduated_college,English,female,,NA,You see the following:,1,1575922809738,NA,images/clownfish.png,NA,1,,small,NA,main2,
1289,NA,Mon Dec 09 2019 15:20:09 GMT-0500 (Eastern Standard Time),images/bird-parade2.png,29,NA,NA,That's a small ,no,1,birds,Barbara,NA,yes,You also see this one:,prenominal,You say to your friend:,hummingbird,60,hummingbird,,NA,NA,graduated_college,English,female,,NA,You see the following:,2,1575922809738,NA,images/hummingbird.png,NA,1,,small,NA,main2,
1289,NA,Mon Dec 09 2019 15:20:09 GMT-0500 (Eastern Standard Time),images/dog-parade.png,29,NA,NA,That's a big ,no,1,dogs,Barbara,NA,yes,You also see this one:,prenominal,You say to your friend:,doberman,60,doberman,,NA,NA,graduated_college,English,female,,NA,You see the following:,3,1575922809738,NA,images/doberman.png,NA,1,,big,NA,main2,
1299,pug,Mon Dec 09 2019 15:36:20 GMT-0500 (Eastern Standard Time),NA,29,warmup/great-dane.jpg,pug,This is a ,No.,2,dogs,Margaret,great dane,yes,Please label the pictures below.,NA,NA,NA,31,NA,Thank you for giving me the opportunity to participate in this study.,warmup/pug.jpg,dogs,graduated_college,English,male,NA,dogs,NA,1,1575923780237,1,NA,This is a ,1.00,These are both,NA,laborador,warmup1,
1299,pug,Mon Dec 09 2019 15:36:20 GMT-0500 (Eastern Standard Time),NA,29,warmup/great-dane.jpg,pug,This is a ,No.,2,dogs,Margaret,great dane,yes,Please label the pictures below.,NA,NA,NA,31,NA,Thank you for giving me the opportunity to participate in this study.,warmup/pug.jpg,dogs,graduated_college,English,male,NA,dogs,NA,1,1575923780237,2,NA,This is a ,1.00,These are both,NA,great dane,warmup1,
1299,chiuahua,Mon Dec 09 2019 15:36:20 GMT-0500 (Eastern Standard Time),NA,29,warmup/doberman.png,chihuahua,This is a ,No.,2,dogs,Margaret,doberman,yes,Please label the pictures below.,NA,NA,NA,31,NA,Thank you for giving me the opportunity to participate in this study.,warmup/chihuahua.jpg,dogs,graduated_college,English,male,NA,dogs,NA,2,1575923780237,1,NA,This is a ,1.00,These are both,NA,german sherpherd,warmup1,
1299,cihuahua,Mon Dec 09 2019 15:36:20 GMT-0500 (Eastern Standard Time),NA,29,warmup/doberman.png,chihuahua,This is a ,No.,2,dogs,Margaret,doberman,yes,Please label the pictures below.,NA,NA,NA,31,NA,Thank you for giving me the opportunity to participate in this study.,warmup/chihuahua.jpg,dogs,graduated_college,English,male,NA,dogs,NA,2,1575923780237,2,NA,This is a ,1.00,These are both,NA,doberman,warmup1,
1299,chihuahua,Mon Dec 09 2019 15:36:20 GMT-0500 (Eastern Standard Time),NA,29,warmup/doberman.png,chihuahua,This is a ,No.,2,dogs,Margaret,doberman,yes,Please label the pictures below.,NA,NA,NA,31,NA,Thank you for giving me the opportunity to participate in this study.,warmup/chihuahua.jpg,dogs,graduated_college,English,male,NA,dogs,NA,2,1575923780237,3,NA,This is a ,1.00,These are both,NA,doberman,warmup1,
1299,dove,Mon Dec 09 2019 15:36:20 GMT-0500 (Eastern Standard Time),NA,29,warmup/sparrow.jpg,goose,This is a ,No.,2,birds,Margaret,sparrow,yes,Please label the pictures below.,NA,NA,NA,31,NA,Thank you for giving me the opportunity to participate in this study.,warmup/goose.png,birds,graduated_college,English,male,NA,birds,NA,3,1575923780237,1,NA,This is a ,1.00,These are both,NA,pigeon,warmup1,
1299,goose,Mon Dec 09 2019 15:36:20 GMT-0500 (Eastern Standard Time),NA,29,warmup/sparrow.jpg,goose,This is a ,No.,2,birds,Margaret,sparrow,yes,Please label the pictures below.,NA,NA,NA,31,NA,Thank you for giving me the opportunity to participate in this study.,warmup/goose.png,birds,graduated_college,English,male,NA,birds,NA,3,1575923780237,2,NA,This is a ,1.00,These are both,NA,sparrow,warmup1,
1299,NA,Mon Dec 09 2019 15:36:20 GMT-0500 (Eastern Standard Time),images/dog-parade2.png,29,NA,NA,That's a big ,No.,2,dogs,Margaret,NA,yes,You also see this one:,prenominal,You say to your friend:,great dane,31,dog,Thank you for giving me the opportunity to participate in this study.,NA,NA,graduated_college,English,male,,NA,You see the following:,1,1575923780237,NA,images/great-dane.png,NA,1.00,,big,NA,main1,
1299,NA,Mon Dec 09 2019 15:36:20 GMT-0500 (Eastern Standard Time),images/bird-parade.png,29,NA,NA,That's a small ,No.,2,birds,Margaret,NA,yes,You also see this one:,prenominal,You say to your friend:,sparrow,31,sparrow,Thank you for giving me the opportunity to participate in this study.,NA,NA,graduated_college,English,male,,NA,You see the following:,2,1575923780237,NA,images/sparrow.png,NA,1.00,,small,NA,main1,
1299,NA,Mon Dec 09 2019 15:36:20 GMT-0500 (Eastern Standard Time),images/dog-parade.png,29,NA,NA,That's a small ,No.,2,dogs,Margaret,NA,yes,You also see this one:,prenominal,You say to your friend:,chihuahua,31,dog,Thank you for giving me the opportunity to participate in this study.,NA,NA,graduated_college,English,male,,NA,You see the following:,3,1575923780237,NA,images/chihuahua.png,NA,1.00,,small,NA,main1,
1299,daisy,Mon Dec 09 2019 15:36:20 GMT-0500 (Eastern Standard Time),NA,29,warmup/peony.png,daisy,This is a ,No.,2,flowers,Margaret,peony,yes,Please label the pictures below.,NA,NA,NA,31,NA,Thank you for giving me the opportunity to participate in this study.,warmup/daisy.png,flowers,graduated_college,English,male,NA,flowers,NA,1,1575923780237,1,NA,This is a ,1.00,These are both,NA,flower,warmup2,
1299,daisy,Mon Dec 09 2019 15:36:20 GMT-0500 (Eastern Standard Time),NA,29,warmup/peony.png,daisy,This is a ,No.,2,flowers,Margaret,peony,yes,Please label the pictures below.,NA,NA,NA,31,NA,Thank you for giving me the opportunity to participate in this study.,warmup/daisy.png,flowers,graduated_college,English,male,NA,flowers,NA,1,1575923780237,2,NA,This is a ,1.00,These are both,NA,peony,warmup2,
1299,tree,Mon Dec 09 2019 15:36:20 GMT-0500 (Eastern Standard Time),NA,29,warmup/bonsai.jpg,redwood|sequoia,This is a ,No.,2,trees,Margaret,bonsai,yes,Please label the pictures below.,NA,NA,NA,31,NA,Thank you for giving me the opportunity to participate in this study.,warmup/sequoia.jpg,trees,graduated_college,English,male,NA,trees,NA,2,1575923780237,1,NA,This is a ,1.00,These are both,NA,tree,warmup2,
1299,redwood,Mon Dec 09 2019 15:36:20 GMT-0500 (Eastern Standard Time),NA,29,warmup/bonsai.jpg,redwood|sequoia,This is a ,No.,2,trees,Margaret,bonsai,yes,Please label the pictures below.,NA,NA,NA,31,NA,Thank you for giving me the opportunity to participate in this study.,warmup/sequoia.jpg,trees,graduated_college,English,male,NA,trees,NA,2,1575923780237,2,NA,This is a ,1.00,These are both,NA,bonsai,warmup2,
1299,bass,Mon Dec 09 2019 15:36:20 GMT-0500 (Eastern Standard Time),NA,29,warmup/clownfish.jpg,tuna,This is a ,No.,2,fish,Margaret,clownfish,yes,Please label the pictures below.,NA,NA,NA,31,NA,Thank you for giving me the opportunity to participate in this study.,warmup/tuna.jpg,fish,graduated_college,English,male,NA,fish,NA,3,1575923780237,1,NA,This is a ,1.00,These are both,NA,goldfish,warmup2,
1299,tuna,Mon Dec 09 2019 15:36:20 GMT-0500 (Eastern Standard Time),NA,29,warmup/clownfish.jpg,tuna,This is a ,No.,2,fish,Margaret,clownfish,yes,Please label the pictures below.,NA,NA,NA,31,NA,Thank you for giving me the opportunity to participate in this study.,warmup/tuna.jpg,fish,graduated_college,English,male,NA,fish,NA,3,1575923780237,2,NA,This is a ,1.00,These are both,NA,clownfish,warmup2,
1299,NA,Mon Dec 09 2019 15:36:20 GMT-0500 (Eastern Standard Time),images/fish-parade2.png,29,NA,NA,That's a big ,No.,2,fish,Margaret,NA,yes,You also see this one:,prenominal,You say to your friend:,tuna,31,tuna,Thank you for giving me the opportunity to participate in this study.,NA,NA,graduated_college,English,male,,NA,You see the following:,1,1575923780237,NA,images/tuna.png,NA,1.00,,big,NA,main2,
1299,NA,Mon Dec 09 2019 15:36:20 GMT-0500 (Eastern Standard Time),images/tree-parade.png,29,NA,NA,That's a big ,No.,2,trees,Margaret,NA,yes,You also see this one:,prenominal,You say to your friend:,sequoia,31,redwood,Thank you for giving me the opportunity to participate in this study.,NA,NA,graduated_college,English,male,,NA,You see the following:,2,1575923780237,NA,images/sequoia.png,NA,1.00,,big,NA,main2,
1299,NA,Mon Dec 09 2019 15:36:20 GMT-0500 (Eastern Standard Time),images/flower-parade.png,29,NA,NA,That's a small ,No.,2,flowers,Margaret,NA,yes,You also see this one:,prenominal,You say to your friend:,daisy,31,flower,Thank you for giving me the opportunity to participate in this study.,NA,NA,graduated_college,English,male,,NA,You see the following:,3,1575923780237,NA,images/daisy.png,NA,1.00,,small,NA,main2,
1171,shark,Fri Dec 06 2019 07:44:57 GMT-0800 (Pacific Standard Time),NA,29,warmup/goldfish.png,swordfish,This is a ,no,1,fish,mary,goldfish,,Please label the pictures below.,NA,NA,NA,,NA,interest,warmup/swordfish.jpg,fish,higher_degree,English,,NA,fish,NA,1,1575647097362,1,NA,This is a ,25,These are both,NA,gold fish,warmup1,
1171,shark,Fri Dec 06 2019 07:44:57 GMT-0800 (Pacific Standard Time),NA,29,warmup/goldfish.png,swordfish,This is a ,no,1,fish,mary,goldfish,,Please label the pictures below.,NA,NA,NA,,NA,interest,warmup/swordfish.jpg,fish,higher_degree,English,,NA,fish,NA,1,1575647097362,2,NA,This is a ,25,These are both,NA,gold fish,warmup1,
1171,swordfish,Fri Dec 06 2019 07:44:57 GMT-0800 (Pacific Standard Time),NA,29,warmup/goldfish.png,swordfish,This is a ,no,1,fish,mary,goldfish,,Please label the pictures below.,NA,NA,NA,,NA,interest,warmup/swordfish.jpg,fish,higher_degree,English,,NA,fish,NA,1,1575647097362,3,NA,This is a ,25,These are both,NA,goldfish,warmup1,
1171,sparrow,Fri Dec 06 2019 07:44:57 GMT-0800 (Pacific Standard Time),NA,29,warmup/eagle.jpg,hummingbird,This is a ,no,1,birds,mary,eagle,,Please label the pictures below.,NA,NA,NA,,NA,interest,warmup/colibri.jpg,bird,higher_degree,English,,NA,birds,NA,2,1575647097362,1,NA,This is an ,25,These are both,NA,egged,warmup1,
1171,hummingbird,Fri Dec 06 2019 07:44:57 GMT-0800 (Pacific Standard Time),NA,29,warmup/eagle.jpg,hummingbird,This is a ,no,1,birds,mary,eagle,,Please label the pictures below.,NA,NA,NA,,NA,interest,warmup/colibri.jpg,birds,higher_degree,English,,NA,birds,NA,2,1575647097362,2,NA,This is an ,25,These are both,NA,eagle,warmup1,
1171,flower,Fri Dec 06 2019 07:44:57 GMT-0800 (Pacific Standard Time),NA,29,warmup/sunflower.png,dandelion,This is a ,no,1,flowers,mary,sunflower,,Please label the pictures below.,NA,NA,NA,,NA,interest,warmup/dandelion.jpg,flower,higher_degree,English,,NA,flowers,NA,3,1575647097362,1,NA,This is a ,25,These are both,NA,flower,warmup1,
1171,dandelion,Fri Dec 06 2019 07:44:57 GMT-0800 (Pacific Standard Time),NA,29,warmup/sunflower.png,dandelion,This is a ,no,1,flowers,mary,sunflower,,Please label the pictures below.,NA,NA,NA,,NA,interest,warmup/dandelion.jpg,flowers,higher_degree,English,,NA,flowers,NA,3,1575647097362,2,NA,This is a ,25,These are both,NA,sunflower,warmup1,
1171,NA,Fri Dec 06 2019 07:44:57 GMT-0800 (Pacific Standard Time),images/fish-parade.png,29,NA,NA,That's a big ,no,1,fish,mary,NA,,You also see this one:,prenominal,You say to your friend:,swordfish,,fish,interest,NA,NA,higher_degree,English,,,NA,You see the following:,1,1575647097362,NA,images/swordfish.png,NA,25,,big,NA,main1,
1171,NA,Fri Dec 06 2019 07:44:57 GMT-0800 (Pacific Standard Time),images/bird-parade2.png,29,NA,NA,That's a small ,no,1,birds,mary,NA,,You also see this one:,prenominal,You say to your friend:,hummingbird,,bird,interest,NA,NA,higher_degree,English,,,NA,You see the following:,2,1575647097362,NA,images/hummingbird.png,NA,25,,small,NA,main1,
1171,NA,Fri Dec 06 2019 07:44:57 GMT-0800 (Pacific Standard Time),images/flower-parade2.png,29,NA,NA,That's a small ,no,1,flowers,mary,NA,,You also see this one:,prenominal,You say to your friend:,dandelion,,flower,interest,NA,NA,higher_degree,English,,,NA,You see the following:,3,1575647097362,NA,images/dandelion.png,NA,25,,small,NA,main1,
1171,dog,Fri Dec 06 2019 07:44:57 GMT-0800 (Pacific Standard Time),NA,29,warmup/doberman.png,chihuahua,This is a ,no,1,dogs,mary,doberman,,Please label the pictures below.,NA,NA,NA,,NA,interest,warmup/chihuahua.jpg,dogs,higher_degree,English,,NA,dogs,NA,1,1575647097362,1,NA,This is a ,25,These are both,NA,dog,warmup2,
1171,chihuahua,Fri Dec 06 2019 07:44:57 GMT-0800 (Pacific Standard Time),NA,29,warmup/doberman.png,chihuahua,This is a ,no,1,dogs,mary,doberman,,Please label the pictures below.,NA,NA,NA,,NA,interest,warmup/chihuahua.jpg,dogs,higher_degree,English,,NA,dogs,NA,1,1575647097362,2,NA,This is a ,25,These are both,NA,doberman,warmup2,
1171,duck,Fri Dec 06 2019 07:44:57 GMT-0800 (Pacific Standard Time),NA,29,warmup/canary.jpg,swan,This is a ,no,1,birds,mary,canary,,Please label the pictures below.,NA,NA,NA,,NA,interest,warmup/swan.jpg,birds,higher_degree,English,,NA,birds,NA,2,1575647097362,1,NA,This is a ,25,These are both,NA,sparrow,warmup2,
1171,swan,Fri Dec 06 2019 07:44:57 GMT-0800 (Pacific Standard Time),NA,29,warmup/canary.jpg,swan,This is a ,no,1,birds,mary,canary,,Please label the pictures below.,NA,NA,NA,,NA,interest,warmup/swan.jpg,birds,higher_degree,English,,NA,birds,NA,2,1575647097362,2,NA,This is a ,25,These are both,NA,canary,warmup2,
1171,flower,Fri Dec 06 2019 07:44:57 GMT-0800 (Pacific Standard Time),NA,29,warmup/peony.png,daisy,This is a ,no,1,flowers,mary,peony,,Please label the pictures below.,NA,NA,NA,,NA,interest,warmup/daisy.png,flowers,higher_degree,English,,NA,flowers,NA,3,1575647097362,1,NA,This is a ,25,These are both,NA,lilly,warmup2,
1171,daisy,Fri Dec 06 2019 07:44:57 GMT-0800 (Pacific Standard Time),NA,29,warmup/peony.png,daisy,This is a ,no,1,flowers,mary,peony,,Please label the pictures below.,NA,NA,NA,,NA,interest,warmup/daisy.png,flowers,higher_degree,English,,NA,flowers,NA,3,1575647097362,2,NA,This is a ,25,These are both,NA,peony,warmup2,
1171,NA,Fri Dec 06 2019 07:44:57 GMT-0800 (Pacific Standard Time),images/dog-parade.png,29,NA,NA,That's a big ,no,1,dogs,mary,NA,,You also see this one:,prenominal,You say to your friend:,doberman,,dog,interest,NA,NA,higher_degree,English,,,NA,You see the following:,1,1575647097362,NA,images/doberman.png,NA,25,,big,NA,main2,
1171,NA,Fri Dec 06 2019 07:44:57 GMT-0800 (Pacific Standard Time),images/flower-parade.png,29,NA,NA,That's a big ,no,1,flowers,mary,NA,,You also see this one:,prenominal,You say to your friend:,peony,,poetry,interest,NA,NA,higher_degree,English,,,NA,You see the following:,2,1575647097362,NA,images/peony.png,NA,25,,big,NA,main2,
1171,NA,Fri Dec 06 2019 07:44:57 GMT-0800 (Pacific Standard Time),images/bird-parade3.png,29,NA,NA,That's a small ,no,1,birds,mary,NA,,You also see this one:,prenominal,You say to your friend:,canary,,bird,interest,NA,NA,higher_degree,English,,,NA,You see the following:,3,1575647097362,NA,images/canary.png,NA,25,,small,NA,main2,
1180,bulldog,Fri Dec 06 2019 10:55:13 GMT-0500 (Eastern Standard Time),NA,29,warmup/great-dane.jpg,pug,This is a ,no,2,dogs,Susan,great dane,,Please label the pictures below.,NA,NA,NA,,NA,none,warmup/pug.jpg,dogs,,,,NA,dogs,NA,1,1575647713793,1,NA,This is a ,1.00,These are both,NA,dachsund,warmup1,
1180,bulldog,Fri Dec 06 2019 10:55:13 GMT-0500 (Eastern Standard Time),NA,29,warmup/great-dane.jpg,pug,This is a ,no,2,dogs,Susan,great dane,,Please label the pictures below.,NA,NA,NA,,NA,none,warmup/pug.jpg,dogs,,,,NA,dogs,NA,1,1575647713793,2,NA,This is a ,1.00,These are both,NA,dachsund,warmup1,
1180,pug,Fri Dec 06 2019 10:55:13 GMT-0500 (Eastern Standard Time),NA,29,warmup/great-dane.jpg,pug,This is a ,no,2,dogs,Susan,great dane,,Please label the pictures below.,NA,NA,NA,,NA,none,warmup/pug.jpg,dogs,,,,NA,dogs,NA,1,1575647713793,3,NA,This is a ,1.00,These are both,NA,great dane,warmup1,
1180,dandelion,Fri Dec 06 2019 10:55:13 GMT-0500 (Eastern Standard Time),NA,29,warmup/peony.png,daisy,This is a ,no,2,flowers,Susan,peony,,Please label the pictures below.,NA,NA,NA,,NA,none,warmup/daisy.png,flowers,,,,NA,flowers,NA,2,1575647713793,1,NA,This is a ,1.00,These are both,NA,rose,warmup1,
1180,diasy,Fri Dec 06 2019 10:55:13 GMT-0500 (Eastern Standard Time),NA,29,warmup/peony.png,daisy,This is a ,no,2,flowers,Susan,peony,,Please label the pictures below.,NA,NA,NA,,NA,none,warmup/daisy.png,flowers,,,,NA,flowers,NA,2,1575647713793,2,NA,This is a ,1.00,These are both,NA,peony,warmup1,
1180,daisy,Fri Dec 06 2019 10:55:13 GMT-0500 (Eastern Standard Time),NA,29,warmup/peony.png,daisy,This is a ,no,2,flowers,Susan,peony,,Please label the pictures below.,NA,NA,NA,,NA,none,warmup/daisy.png,flowers,,,,NA,flowers,NA,2,1575647713793,3,NA,This is a ,1.00,These are both,NA,peony,warmup1,
1180,swordsfish,Fri Dec 06 2019 10:55:13 GMT-0500 (Eastern Standard Time),NA,29,warmup/goldfish.png,swordfish,This is a ,no,2,fish,Susan,goldfish,,Please label the pictures below.,NA,NA,NA,,NA,none,warmup/swordfish.jpg,fish,,,,NA,fish,NA,3,1575647713793,1,NA,This is a ,1.00,These are both,NA,minnow,warmup1,
1180,swordfish,Fri Dec 06 2019 10:55:13 GMT-0500 (Eastern Standard Time),NA,29,warmup/goldfish.png,swordfish,This is a ,no,2,fish,Susan,goldfish,,Please label the pictures below.,NA,NA,NA,,NA,none,warmup/swordfish.jpg,fish,,,,NA,fish,NA,3,1575647713793,2,NA,This is a ,1.00,These are both,NA,goldfish,warmup1,
1180,NA,Fri Dec 06 2019 10:55:13 GMT-0500 (Eastern Standard Time),images/flower-parade.png,29,NA,NA,That's a small ,no,2,flowers,Susan,NA,,You also see this one:,prenominal,You say to your friend:,daisy,,flower,none,NA,NA,,,,,NA,You see the following:,1,1575647713793,NA,images/daisy.png,NA,1.00,,small,NA,main1,
1180,NA,Fri Dec 06 2019 10:55:13 GMT-0500 (Eastern Standard Time),images/fish-parade.png,29,NA,NA,That's a big ,no,2,fish,Susan,NA,,You also see this one:,prenominal,You say to your friend:,swordfish,,fish,none,NA,NA,,,,,NA,You see the following:,2,1575647713793,NA,images/swordfish.png,NA,1.00,,big,NA,main1,
1180,NA,Fri Dec 06 2019 10:55:13 GMT-0500 (Eastern Standard Time),images/dog-parade2.png,29,NA,NA,That's a big ,no,2,dogs,Susan,NA,,You also see this one:,prenominal,You say to your friend:,great dane,,dog,none,NA,NA,,,,,NA,You see the following:,3,1575647713793,NA,images/great-dane.png,NA,1.00,,big,NA,main1,
1180,swan,Fri Dec 06 2019 10:55:13 GMT-0500 (Eastern Standard Time),NA,29,warmup/canary.jpg,swan,This is a ,no,2,birds,Susan,canary,,Please label the pictures below.,NA,NA,NA,,NA,none,warmup/swan.jpg,birds,,,,NA,birds,NA,1,1575647713793,1,NA,This is a ,1.00,These are both,NA,finch,warmup2,
1180,swan,Fri Dec 06 2019 10:55:13 GMT-0500 (Eastern Standard Time),NA,29,warmup/canary.jpg,swan,This is a ,no,2,birds,Susan,canary,,Please label the pictures below.,NA,NA,NA,,NA,none,warmup/swan.jpg,birds,,,,NA,birds,NA,1,1575647713793,2,NA,This is a ,1.00,These are both,NA,canary,warmup2,
1180,chiuaua,Fri Dec 06 2019 10:55:13 GMT-0500 (Eastern Standard Time),NA,29,warmup/doberman.png,chihuahua,This is a ,no,2,dogs,Susan,doberman,,Please label the pictures below.,NA,NA,NA,,NA,none,warmup/chihuahua.jpg,dogs,,,,NA,dogs,NA,2,1575647713793,1,NA,This is a ,1.00,These are both,NA,doberman,warmup2,
1180,chihuahua,Fri Dec 06 2019 10:55:13 GMT-0500 (Eastern Standard Time),NA,29,warmup/doberman.png,chihuahua,This is a ,no,2,dogs,Susan,doberman,,Please label the pictures below.,NA,NA,NA,,NA,none,warmup/chihuahua.jpg,dogs,,,,NA,dogs,NA,2,1575647713793,2,NA,This is a ,1.00,These are both,NA,doberman,warmup2,
1180,dandelion,Fri Dec 06 2019 10:55:13 GMT-0500 (Eastern Standard Time),NA,29,warmup/sunflower.png,dandelion,This is a ,no,2,flowers,Susan,sunflower,,Please label the pictures below.,NA,NA,NA,,NA,none,warmup/dandelion.jpg,flowers,,,,NA,flowers,NA,3,1575647713793,1,NA,This is a ,1.00,These are both,NA,sunflower,warmup2,
1180,NA,Fri Dec 06 2019 10:55:13 GMT-0500 (Eastern Standard Time),images/bird-parade3.png,29,NA,NA,That's a small ,no,2,birds,Susan,NA,,You also see this one:,prenominal,You say to your friend:,canary,,bird,none,NA,NA,,,,,NA,You see the following:,1,1575647713793,NA,images/canary.png,NA,1.00,,small,NA,main2,
1180,NA,Fri Dec 06 2019 10:55:13 GMT-0500 (Eastern Standard Time),images/dog-parade.png,29,NA,NA,That's a small ,no,2,dogs,Susan,NA,,You also see this one:,prenominal,You say to your friend:,chihuahua,,dog,none,NA,NA,,,,,NA,You see the following:,2,1575647713793,NA,images/chihuahua.png,NA,1.00,,small,NA,main2,
1180,NA,Fri Dec 06 2019 10:55:13 GMT-0500 (Eastern Standard Time),images/flower-parade2.png,29,NA,NA,That's a big ,no,2,flowers,Susan,NA,,You also see this one:,prenominal,You say to your friend:,sunflower,,flower,none,NA,NA,,,,,NA,You see the following:,3,1575647713793,NA,images/sunflower.png,NA,1.00,,big,NA,main2,
1182,daisy,Fri Dec 06 2019 11:51:23 GMT-0400 (Atlantic Standard Time),NA,29,warmup/peony.png,daisy,This is a ,I did not experience any problems or technical difficulties while participating in this experiment.,2,flowers,Patricia,peony,yes,Please label the pictures below.,NA,NA,NA,35,NA,I found this study to be interesting and thought-provoking.,warmup/daisy.png,flowers,graduated_college,English,female,NA,flowers,NA,1,1575647483713,1,NA,This is a ,1.00,These are both,NA,rose,warmup1,
1182,daisy,Fri Dec 06 2019 11:51:23 GMT-0400 (Atlantic Standard Time),NA,29,warmup/peony.png,daisy,This is a ,I did not experience any problems or technical difficulties while participating in this experiment.,2,flowers,Patricia,peony,yes,Please label the pictures below.,NA,NA,NA,35,NA,I found this study to be interesting and thought-provoking.,warmup/daisy.png,flowers,graduated_college,English,female,NA,flowers,NA,1,1575647483713,2,NA,This is a ,1.00,These are both,NA,rose,warmup1,
1182,daisy,Fri Dec 06 2019 11:51:23 GMT-0400 (Atlantic Standard Time),NA,29,warmup/peony.png,daisy,This is a ,I did not experience any problems or technical difficulties while participating in this experiment.,2,flowers,Patricia,peony,yes,Please label the pictures below.,NA,NA,NA,35,NA,I found this study to be interesting and thought-provoking.,warmup/daisy.png,flowers,graduated_college,English,female,NA,flowers,NA,1,1575647483713,3,NA,This is a ,1.00,These are both,NA,rose,warmup1,
1182,daisy,Fri Dec 06 2019 11:51:23 GMT-0400 (Atlantic Standard Time),NA,29,warmup/peony.png,daisy,This is a ,I did not experience any problems or technical difficulties while participating in this experiment.,2,flowers,Patricia,peony,yes,Please label the pictures below.,NA,NA,NA,35,NA,I found this study to be interesting and thought-provoking.,warmup/daisy.png,flowers,graduated_college,English,female,NA,flowers,NA,1,1575647483713,4,NA,This is a ,1.00,These are both,NA,rose,warmup1,
1182,daisy,Fri Dec 06 2019 11:51:23 GMT-0400 (Atlantic Standard Time),NA,29,warmup/peony.png,daisy,This is a ,I did not experience any problems or technical difficulties while participating in this experiment.,2,flowers,Patricia,peony,yes,Please label the pictures below.,NA,NA,NA,35,NA,I found this study to be interesting and thought-provoking.,warmup/daisy.png,flowers,graduated_college,English,female,NA,flowers,NA,1,1575647483713,5,NA,This is a ,1.00,These are both,NA,rose,warmup1,
1182,daisy,Fri Dec 06 2019 11:51:23 GMT-0400 (Atlantic Standard Time),NA,29,warmup/peony.png,daisy,This is a ,I did not experience any problems or technical difficulties while participating in this experiment.,2,flowers,Patricia,peony,yes,Please label the pictures below.,NA,NA,NA,35,NA,I found this study to be interesting and thought-provoking.,warmup/daisy.png,flowers,graduated_college,English,female,NA,flowers,NA,1,1575647483713,6,NA,This is a ,1.00,These are both,NA,rose,warmup1,
1182,daisy,Fri Dec 06 2019 11:51:23 GMT-0400 (Atlantic Standard Time),NA,29,warmup/peony.png,daisy,This is a ,I did not experience any problems or technical difficulties while participating in this experiment.,2,flowers,Patricia,peony,yes,Please label the pictures below.,NA,NA,NA,35,NA,I found this study to be interesting and thought-provoking.,warmup/daisy.png,flowers,graduated_college,English,female,NA,flowers,NA,1,1575647483713,7,NA,This is a ,1.00,These are both,NA,rose,warmup1,
1182,daisy,Fri Dec 06 2019 11:51:23 GMT-0400 (Atlantic Standard Time),NA,29,warmup/peony.png,daisy,This is a ,I did not experience any problems or technical difficulties while participating in this experiment.,2,flowers,Patricia,peony,yes,Please label the pictures below.,NA,NA,NA,35,NA,I found this study to be interesting and thought-provoking.,warmup/daisy.png,flowers,graduated_college,English,female,NA,flowers,NA,1,1575647483713,8,NA,This is a ,1.00,These are both,NA,rose,warmup1,
1182,daisy,Fri Dec 06 2019 11:51:23 GMT-0400 (Atlantic Standard Time),NA,29,warmup/peony.png,daisy,This is a ,I did not experience any problems or technical difficulties while participating in this experiment.,2,flowers,Patricia,peony,yes,Please label the pictures below.,NA,NA,NA,35,NA,I found this study to be interesting and thought-provoking.,warmup/daisy.png,flowers,graduated_college,English,female,NA,flowers,NA,1,1575647483713,9,NA,This is a ,1.00,These are both,NA,rose,warmup1,
1182,daisy,Fri Dec 06 2019 11:51:23 GMT-0400 (Atlantic Standard Time),NA,29,warmup/peony.png,daisy,This is a ,I did not experience any problems or technical difficulties while participating in this experiment.,2,flowers,Patricia,peony,yes,Please label the pictures below.,NA,NA,NA,35,NA,I found this study to be interesting and thought-provoking.,warmup/daisy.png,flowers,graduated_college,English,female,NA,flowers,NA,1,1575647483713,10,NA,This is a ,1.00,These are both,NA,rose,warmup1,
1182,daisy,Fri Dec 06 2019 11:51:23 GMT-0400 (Atlantic Standard Time),NA,29,warmup/peony.png,daisy,This is a ,I did not experience any problems or technical difficulties while participating in this experiment.,2,flowers,Patricia,peony,yes,Please label the pictures below.,NA,NA,NA,35,NA,I found this study to be interesting and thought-provoking.,warmup/daisy.png,flowers,graduated_college,English,female,NA,flowers,NA,1,1575647483713,11,NA,This is a ,1.00,These are both,NA,rose,warmup1,
1182,daisy,Fri Dec 06 2019 11:51:23 GMT-0400 (Atlantic Standard Time),NA,29,warmup/peony.png,daisy,This is a ,I did not experience any problems or technical difficulties while participating in this experiment.,2,flowers,Patricia,peony,yes,Please label the pictures below.,NA,NA,NA,35,NA,I found this study to be interesting and thought-provoking.,warmup/daisy.png,flowers,graduated_college,English,female,NA,flowers,NA,1,1575647483713,12,NA,This is a ,1.00,These are both,NA,rose,warmup1,
1182,daisy,Fri Dec 06 2019 11:51:23 GMT-0400 (Atlantic Standard Time),NA,29,warmup/peony.png,daisy,This is a ,I did not experience any problems or technical difficulties while participating in this experiment.,2,flowers,Patricia,peony,yes,Please label the pictures below.,NA,NA,NA,35,NA,I found this study to be interesting and thought-provoking.,warmup/daisy.png,flowers,graduated_college,English,female,NA,flowers,NA,1,1575647483713,13,NA,This is a ,1.00,These are both,NA,rose,warmup1,
1182,daisy,Fri Dec 06 2019 11:51:23 GMT-0400 (Atlantic Standard Time),NA,29,warmup/peony.png,daisy,This is a ,I did not experience any problems or technical difficulties while participating in this experiment.,2,flowers,Patricia,peony,yes,Please label the pictures below.,NA,NA,NA,35,NA,I found this study to be interesting and thought-provoking.,warmup/daisy.png,flowers,graduated_college,English,female,NA,flowers,NA,1,1575647483713,14,NA,This is a ,1.00,These are both,NA,peony,warmup1,
1182,evergreen,Fri Dec 06 2019 11:51:23 GMT-0400 (Atlantic Standard Time),NA,29,warmup/bonsai.jpg,redwood|sequoia,This is a ,I did not experience any problems or technical difficulties while participating in this experiment.,2,trees,Patricia,bonsai,yes,Please label the pictures below.,NA,NA,NA,35,NA,I found this study to be interesting and thought-provoking.,warmup/sequoia.jpg,trees,graduated_college,English,female,NA,trees,NA,2,1575647483713,1,NA,This is a ,1.00,These are both,NA,evergreen,warmup1,
1182,redwood,Fri Dec 06 2019 11:51:23 GMT-0400 (Atlantic Standard Time),NA,29,warmup/bonsai.jpg,redwood|sequoia,This is a ,I did not experience any problems or technical difficulties while participating in this experiment.,2,trees,Patricia,bonsai,yes,Please label the pictures below.,NA,NA,NA,35,NA,I found this study to be interesting and thought-provoking.,warmup/sequoia.jpg,trees,graduated_college,English,female,NA,trees,NA,2,1575647483713,2,NA,This is a ,1.00,These are both,NA,bonsai,warmup1,
1182,swan,Fri Dec 06 2019 11:51:23 GMT-0400 (Atlantic Standard Time),NA,29,warmup/canary.jpg,swan,This is a ,I did not experience any problems or technical difficulties while participating in this experiment.,2,birds,Patricia,canary,yes,Please label the pictures below.,NA,NA,NA,35,NA,I found this study to be interesting and thought-provoking.,warmup/swan.jpg,birds,graduated_college,English,female,NA,birds,NA,3,1575647483713,1,NA,This is a ,1.00,These are both,NA,hummingbird,warmup1,
1182,swan,Fri Dec 06 2019 11:51:23 GMT-0400 (Atlantic Standard Time),NA,29,warmup/canary.jpg,swan,This is a ,I did not experience any problems or technical difficulties while participating in this experiment.,2,birds,Patricia,canary,yes,Please label the pictures below.,NA,NA,NA,35,NA,I found this study to be interesting and thought-provoking.,warmup/swan.jpg,birds,graduated_college,English,female,NA,birds,NA,3,1575647483713,2,NA,This is a ,1.00,These are both,NA,canary,warmup1,
1182,NA,Fri Dec 06 2019 11:51:23 GMT-0400 (Atlantic Standard Time),images/tree-parade.png,29,NA,NA,That's a small ,I did not experience any problems or technical difficulties while participating in this experiment.,2,trees,Patricia,NA,yes,You also see this one:,prenominal,You say to your friend:,bonsai,35,bonsai,I found this study to be interesting and thought-provoking.,NA,NA,graduated_college,English,female,,NA,You see the following:,1,1575647483713,NA,images/bonsai.png,NA,1.00,,small,NA,main1,
1182,NA,Fri Dec 06 2019 11:51:23 GMT-0400 (Atlantic Standard Time),images/bird-parade3.png,29,NA,NA,That's a small ,I did not experience any problems or technical difficulties while participating in this experiment.,2,birds,Patricia,NA,yes,You also see this one:,prenominal,You say to your friend:,canary,35,canary,I found this study to be interesting and thought-provoking.,NA,NA,graduated_college,English,female,,NA,You see the following:,2,1575647483713,NA,images/canary.png,NA,1.00,,small,NA,main1,
1182,NA,Fri Dec 06 2019 11:51:23 GMT-0400 (Atlantic Standard Time),images/flower-parade.png,29,NA,NA,That's a big ,I did not experience any problems or technical difficulties while participating in this experiment.,2,flowers,Patricia,NA,yes,You also see this one:,prenominal,You say to your friend:,peony,35,peony,I found this study to be interesting and thought-provoking.,NA,NA,graduated_college,English,female,,NA,You see the following:,3,1575647483713,NA,images/peony.png,NA,1.00,,big,NA,main1,
1182,marlin,Fri Dec 06 2019 11:51:23 GMT-0400 (Atlantic Standard Time),NA,29,warmup/goldfish.png,swordfish,This is a ,I did not experience any problems or technical difficulties while participating in this experiment.,2,fish,Patricia,goldfish,yes,Please label the pictures below.,NA,NA,NA,35,NA,I found this study to be interesting and thought-provoking.,warmup/swordfish.jpg,fish,graduated_college,English,female,NA,fish,NA,1,1575647483713,1,NA,This is a ,1.00,These are both,NA,goldfish,warmup2,
1182,swordfish,Fri Dec 06 2019 11:51:23 GMT-0400 (Atlantic Standard Time),NA,29,warmup/goldfish.png,swordfish,This is a ,I did not experience any problems or technical difficulties while participating in this experiment.,2,fish,Patricia,goldfish,yes,Please label the pictures below.,NA,NA,NA,35,NA,I found this study to be interesting and thought-provoking.,warmup/swordfish.jpg,fish,graduated_college,English,female,NA,fish,NA,1,1575647483713,2,NA,This is a ,1.00,These are both,NA,goldfish,warmup2,
1182,tuna,Fri Dec 06 2019 11:51:23 GMT-0400 (Atlantic Standard Time),NA,29,warmup/clownfish.jpg,tuna,This is a ,I did not experience any problems or technical difficulties while participating in this experiment.,2,fish,Patricia,clownfish,yes,Please label the pictures below.,NA,NA,NA,35,NA,I found this study to be interesting and thought-provoking.,warmup/tuna.jpg,fish,graduated_college,English,female,NA,fish,NA,2,1575647483713,1,NA,This is a ,1.00,These are both,NA,clownfish,warmup2,
1182,chihuahua,Fri Dec 06 2019 11:51:23 GMT-0400 (Atlantic Standard Time),NA,29,warmup/doberman.png,chihuahua,This is a ,I did not experience any problems or technical difficulties while participating in this experiment.,2,dogs,Patricia,doberman,yes,Please label the pictures below.,NA,NA,NA,35,NA,I found this study to be interesting and thought-provoking.,warmup/chihuahua.jpg,dog,graduated_college,English,female,NA,dogs,NA,3,1575647483713,1,NA,This is a ,1.00,These are both,NA,doberman,warmup2,
1182,chihuahua,Fri Dec 06 2019 11:51:23 GMT-0400 (Atlantic Standard Time),NA,29,warmup/doberman.png,chihuahua,This is a ,I did not experience any problems or technical difficulties while participating in this experiment.,2,dogs,Patricia,doberman,yes,Please label the pictures below.,NA,NA,NA,35,NA,I found this study to be interesting and thought-provoking.,warmup/chihuahua.jpg,dogs,graduated_college,English,female,NA,dogs,NA,3,1575647483713,2,NA,This is a ,1.00,These are both,NA,doberman,warmup2,
1182,NA,Fri Dec 06 2019 11:51:23 GMT-0400 (Atlantic Standard Time),images/dog-parade.png,29,NA,NA,That's a small ,I did not experience any problems or technical difficulties while participating in this experiment.,2,dogs,Patricia,NA,yes,You also see this one:,prenominal,You say to your friend:,chihuahua,35,chihuahua,I found this study to be interesting and thought-provoking.,NA,NA,graduated_college,English,female,,NA,You see the following:,1,1575647483713,NA,images/chihuahua.png,NA,1.00,,small,NA,main2,
1182,NA,Fri Dec 06 2019 11:51:23 GMT-0400 (Atlantic Standard Time),images/fish-parade2.png,29,NA,NA,That's a big ,I did not experience any problems or technical difficulties while participating in this experiment.,2,fish,Patricia,NA,yes,You also see this one:,prenominal,You say to your friend:,tuna,35,tuna,I found this study to be interesting and thought-provoking.,NA,NA,graduated_college,English,female,,NA,You see the following:,2,1575647483713,NA,images/tuna.png,NA,1.00,,big,NA,main2,
1182,NA,Fri Dec 06 2019 11:51:23 GMT-0400 (Atlantic Standard Time),images/fish-parade.png,29,NA,NA,That's a big ,I did not experience any problems or technical difficulties while participating in this experiment.,2,fish,Patricia,NA,yes,You also see this one:,prenominal,You say to your friend:,swordfish,35,swordfish,I found this study to be interesting and thought-provoking.,NA,NA,graduated_college,English,female,,NA,You see the following:,3,1575647483713,NA,images/swordfish.png,NA,1.00,,big,NA,main2,
1291,plant,Mon Dec 09 2019 15:17:39 GMT-0500 (Eastern Standard Time),NA,29,warmup/sunflower.png,dandelion,This is a ,None,1,flowers,mary,sunflower,yes,Please label the pictures below.,NA,NA,NA,39,NA,,warmup/dandelion.jpg,flowers,some_college,English,female,NA,flowers,NA,1,1575922659149,1,NA,This is a ,1,These are both,NA,sunflower,warmup1,
1291,dandelion,Mon Dec 09 2019 15:17:39 GMT-0500 (Eastern Standard Time),NA,29,warmup/sunflower.png,dandelion,This is a ,None,1,flowers,mary,sunflower,yes,Please label the pictures below.,NA,NA,NA,39,NA,,warmup/dandelion.jpg,flowers,some_college,English,female,NA,flowers,NA,1,1575922659149,2,NA,This is a ,1,These are both,NA,sunflower,warmup1,
1291,puppy,Mon Dec 09 2019 15:17:39 GMT-0500 (Eastern Standard Time),NA,29,warmup/doberman.png,chihuahua,This is a ,None,1,dogs,mary,doberman,yes,Please label the pictures below.,NA,NA,NA,39,NA,,warmup/chihuahua.jpg,animals,some_college,English,female,NA,dogs,NA,2,1575922659149,1,NA,This is a ,1,These are both,NA,dog,warmup1,
1291,chihuahua,Mon Dec 09 2019 15:17:39 GMT-0500 (Eastern Standard Time),NA,29,warmup/doberman.png,chihuahua,This is a ,None,1,dogs,mary,doberman,yes,Please label the pictures below.,NA,NA,NA,39,NA,,warmup/chihuahua.jpg,dogs,some_college,English,female,NA,dogs,NA,2,1575922659149,2,NA,This is a ,1,These are both,NA,doberman,warmup1,
1291,dog,Mon Dec 09 2019 15:17:39 GMT-0500 (Eastern Standard Time),NA,29,warmup/great-dane.jpg,pug,This is a ,None,1,dogs,mary,great dane,yes,Please label the pictures below.,NA,NA,NA,39,NA,,warmup/pug.jpg,dogs,some_college,English,female,NA,dogs,NA,3,1575922659149,1,NA,This is a ,1,These are both,NA,dog,warmup1,
1291,pug,Mon Dec 09 2019 15:17:39 GMT-0500 (Eastern Standard Time),NA,29,warmup/great-dane.jpg,pug,This is a ,None,1,dogs,mary,great dane,yes,Please label the pictures below.,NA,NA,NA,39,NA,,warmup/pug.jpg,dogs,some_college,English,female,NA,dogs,NA,3,1575922659149,2,NA,This is a ,1,These are both,NA,great dan,warmup1,
1291,pug,Mon Dec 09 2019 15:17:39 GMT-0500 (Eastern Standard Time),NA,29,warmup/great-dane.jpg,pug,This is a ,None,1,dogs,mary,great dane,yes,Please label the pictures below.,NA,NA,NA,39,NA,,warmup/pug.jpg,dogs,some_college,English,female,NA,dogs,NA,3,1575922659149,3,NA,This is a ,1,These are both,NA,great dane,warmup1,
1291,NA,Mon Dec 09 2019 15:17:39 GMT-0500 (Eastern Standard Time),images/flower-parade2.png,29,NA,NA,That's a small ,None,1,flowers,mary,NA,yes,You also see this one:,prenominal,You say to your friend:,dandelion,39,dandelion,,NA,NA,some_college,English,female,,NA,You see the following:,1,1575922659149,NA,images/dandelion.png,NA,1,,small,NA,main1,
1291,NA,Mon Dec 09 2019 15:17:39 GMT-0500 (Eastern Standard Time),images/dog-parade.png,29,NA,NA,That's a big ,None,1,dogs,mary,NA,yes,You also see this one:,prenominal,You say to your friend:,doberman,39,doverman,,NA,NA,some_college,English,female,,NA,You see the following:,2,1575922659149,NA,images/doberman.png,NA,1,,big,NA,main1,
1291,NA,Mon Dec 09 2019 15:17:39 GMT-0500 (Eastern Standard Time),images/dog-parade2.png,29,NA,NA,That's a big ,None,1,dogs,mary,NA,yes,You also see this one:,prenominal,You say to your friend:,great dane,39,dog,,NA,NA,some_college,English,female,,NA,You see the following:,3,1575922659149,NA,images/great-dane.png,NA,1,,big,NA,main1,
1291,duck,Mon Dec 09 2019 15:17:39 GMT-0500 (Eastern Standard Time),NA,29,warmup/sparrow.jpg,goose,This is a ,None,1,birds,mary,sparrow,yes,Please label the pictures below.,NA,NA,NA,39,NA,,warmup/goose.png,animals,some_college,English,female,NA,birds,NA,1,1575922659149,1,NA,This is a ,1,These are both,NA,bird,warmup2,
1291,goose,Mon Dec 09 2019 15:17:39 GMT-0500 (Eastern Standard Time),NA,29,warmup/sparrow.jpg,goose,This is a ,None,1,birds,mary,sparrow,yes,Please label the pictures below.,NA,NA,NA,39,NA,,warmup/goose.png,birds,some_college,English,female,NA,birds,NA,1,1575922659149,2,NA,This is a ,1,These are both,NA,sparrow,warmup2,
1291,oak,Mon Dec 09 2019 15:17:39 GMT-0500 (Eastern Standard Time),NA,29,warmup/bonsai.jpg,redwood|sequoia,This is a ,None,1,trees,mary,bonsai,yes,Please label the pictures below.,NA,NA,NA,39,NA,,warmup/sequoia.jpg,trees,some_college,English,female,NA,trees,NA,2,1575922659149,1,NA,This is a ,1,These are both,NA,bonzi,warmup2,
1291,redwood,Mon Dec 09 2019 15:17:39 GMT-0500 (Eastern Standard Time),NA,29,warmup/bonsai.jpg,redwood|sequoia,This is a ,None,1,trees,mary,bonsai,yes,Please label the pictures below.,NA,NA,NA,39,NA,,warmup/sequoia.jpg,trees,some_college,English,female,NA,trees,NA,2,1575922659149,2,NA,This is a ,1,These are both,NA,bonsai,warmup2,
1291,fflo,Mon Dec 09 2019 15:17:39 GMT-0500 (Eastern Standard Time),NA,29,warmup/peony.png,daisy,This is a ,None,1,flowers,mary,peony,yes,Please label the pictures below.,NA,NA,NA,39,NA,,warmup/daisy.png,flowers,some_college,English,female,NA,flowers,NA,3,1575922659149,1,NA,This is a ,1,These are both,NA,gardenia,warmup2,
1291,daisy,Mon Dec 09 2019 15:17:39 GMT-0500 (Eastern Standard Time),NA,29,warmup/peony.png,daisy,This is a ,None,1,flowers,mary,peony,yes,Please label the pictures below.,NA,NA,NA,39,NA,,warmup/daisy.png,flowers,some_college,English,female,NA,flowers,NA,3,1575922659149,2,NA,This is a ,1,These are both,NA,peony,warmup2,
1291,NA,Mon Dec 09 2019 15:17:39 GMT-0500 (Eastern Standard Time),images/flower-parade.png,29,NA,NA,That's a big ,None,1,flowers,mary,NA,yes,You also see this one:,prenominal,You say to your friend:,peony,39,peony,,NA,NA,some_college,English,female,,NA,You see the following:,1,1575922659149,NA,images/peony.png,NA,1,,big,NA,main2,
1291,NA,Mon Dec 09 2019 15:17:39 GMT-0500 (Eastern Standard Time),images/bird-parade.png,29,NA,NA,That's a small ,None,1,birds,mary,NA,yes,You also see this one:,prenominal,You say to your friend:,sparrow,39,sparrow,,NA,NA,some_college,English,female,,NA,You see the following:,2,1575922659149,NA,images/sparrow.png,NA,1,,small,NA,main2,
1291,NA,Mon Dec 09 2019 15:17:39 GMT-0500 (Eastern Standard Time),images/tree-parade.png,29,NA,NA,That's a small ,None,1,trees,mary,NA,yes,You also see this one:,prenominal,You say to your friend:,bonsai,39,bonsai,,NA,NA,some_college,English,female,,NA,You see the following:,3,1575922659149,NA,images/bonsai.png,NA,1,,small,NA,main2,
1167,flower,Fri Dec 06 2019 09:51:45 GMT-0600 (Central Standard Time),NA,29,warmup/peony.png,daisy,This is a ,no,1,flowers,susan,peony,yes,Please label the pictures below.,NA,NA,NA,38,NA,Thanks,warmup/daisy.png,flowers,graduated_high_school,english,male,NA,flowers,NA,1,1575647505506,1,NA,This is a ,1.00,These are both,NA,flower,warmup1,
1167,flower,Fri Dec 06 2019 09:51:45 GMT-0600 (Central Standard Time),NA,29,warmup/peony.png,daisy,This is a ,no,1,flowers,susan,peony,yes,Please label the pictures below.,NA,NA,NA,38,NA,Thanks,warmup/daisy.png,flowers,graduated_high_school,english,male,NA,flowers,NA,1,1575647505506,2,NA,This is a ,1.00,These are both,NA,flower,warmup1,
1167,flower,Fri Dec 06 2019 09:51:45 GMT-0600 (Central Standard Time),NA,29,warmup/peony.png,daisy,This is a ,no,1,flowers,susan,peony,yes,Please label the pictures below.,NA,NA,NA,38,NA,Thanks,warmup/daisy.png,flowers,graduated_high_school,english,male,NA,flowers,NA,1,1575647505506,3,NA,This is a ,1.00,These are both,NA,flower,warmup1,
1167,daisy,Fri Dec 06 2019 09:51:45 GMT-0600 (Central Standard Time),NA,29,warmup/peony.png,daisy,This is a ,no,1,flowers,susan,peony,yes,Please label the pictures below.,NA,NA,NA,38,NA,Thanks,warmup/daisy.png,flowers,graduated_high_school,english,male,NA,flowers,NA,1,1575647505506,4,NA,This is a ,1.00,These are both,NA,peony,warmup1,
1167,flower,Fri Dec 06 2019 09:51:45 GMT-0600 (Central Standard Time),NA,29,warmup/sunflower.png,dandelion,This is a ,no,1,flowers,susan,sunflower,yes,Please label the pictures below.,NA,NA,NA,38,NA,Thanks,warmup/dandelion.jpg,flowers,graduated_high_school,english,male,NA,flowers,NA,2,1575647505506,1,NA,This is a ,1.00,These are both,NA,sunflower,warmup1,
1167,dandelion,Fri Dec 06 2019 09:51:45 GMT-0600 (Central Standard Time),NA,29,warmup/sunflower.png,dandelion,This is a ,no,1,flowers,susan,sunflower,yes,Please label the pictures below.,NA,NA,NA,38,NA,Thanks,warmup/dandelion.jpg,flowers,graduated_high_school,english,male,NA,flowers,NA,2,1575647505506,2,NA,This is a ,1.00,These are both,NA,sunflower,warmup1,
1167,swan,Fri Dec 06 2019 09:51:45 GMT-0600 (Central Standard Time),NA,29,warmup/canary.jpg,swan,This is a ,no,1,birds,susan,canary,yes,Please label the pictures below.,NA,NA,NA,38,NA,Thanks,warmup/swan.jpg,birds,graduated_high_school,english,male,NA,birds,NA,3,1575647505506,1,NA,This is a ,1.00,These are both,NA,birds,warmup1,
1167,swan,Fri Dec 06 2019 09:51:45 GMT-0600 (Central Standard Time),NA,29,warmup/canary.jpg,swan,This is a ,no,1,birds,susan,canary,yes,Please label the pictures below.,NA,NA,NA,38,NA,Thanks,warmup/swan.jpg,birds,graduated_high_school,english,male,NA,birds,NA,3,1575647505506,2,NA,This is a ,1.00,These are both,NA,canary,warmup1,
1167,NA,Fri Dec 06 2019 09:51:45 GMT-0600 (Central Standard Time),images/flower-parade.png,29,NA,NA,That's a big ,no,1,flowers,susan,NA,yes,You also see this one:,prenominal,You say to your friend:,peony,38,flower,Thanks,NA,NA,graduated_high_school,english,male,,NA,You see the following:,1,1575647505506,NA,images/peony.png,NA,1.00,,big,NA,main1,
1167,NA,Fri Dec 06 2019 09:51:45 GMT-0600 (Central Standard Time),images/bird-parade3.png,29,NA,NA,That's a small ,no,1,birds,susan,NA,yes,You also see this one:,prenominal,You say to your friend:,canary,38,canary,Thanks,NA,NA,graduated_high_school,english,male,,NA,You see the following:,2,1575647505506,NA,images/canary.png,NA,1.00,,small,NA,main1,
1167,NA,Fri Dec 06 2019 09:51:45 GMT-0600 (Central Standard Time),images/flower-parade2.png,29,NA,NA,That's a small ,no,1,flowers,susan,NA,yes,You also see this one:,prenominal,You say to your friend:,dandelion,38,dandelion,Thanks,NA,NA,graduated_high_school,english,male,,NA,You see the following:,3,1575647505506,NA,images/dandelion.png,NA,1.00,,small,NA,main1,
1167,Chihuahua,Fri Dec 06 2019 09:51:45 GMT-0600 (Central Standard Time),NA,29,warmup/doberman.png,chihuahua,This is a ,no,1,dogs,susan,doberman,yes,Please label the pictures below.,NA,NA,NA,38,NA,Thanks,warmup/chihuahua.jpg,dogs,graduated_high_school,english,male,NA,dogs,NA,1,1575647505506,1,NA,This is a ,1.00,These are both,NA,German Shepard,warmup2,
1167,Chihuahua,Fri Dec 06 2019 09:51:45 GMT-0600 (Central Standard Time),NA,29,warmup/doberman.png,chihuahua,This is a ,no,1,dogs,susan,doberman,yes,Please label the pictures below.,NA,NA,NA,38,NA,Thanks,warmup/chihuahua.jpg,dogs,graduated_high_school,english,male,NA,dogs,NA,1,1575647505506,2,NA,This is a ,1.00,These are both,NA,doberman,warmup2,
1167,tuna,Fri Dec 06 2019 09:51:45 GMT-0600 (Central Standard Time),NA,29,warmup/clownfish.jpg,tuna,This is a ,no,1,fish,susan,clownfish,yes,Please label the pictures below.,NA,NA,NA,38,NA,Thanks,warmup/tuna.jpg,fish,graduated_high_school,english,male,NA,fish,NA,2,1575647505506,1,NA,This is a ,1.00,These are both,NA,clown fish,warmup2,
1167,tuna,Fri Dec 06 2019 09:51:45 GMT-0600 (Central Standard Time),NA,29,warmup/clownfish.jpg,tuna,This is a ,no,1,fish,susan,clownfish,yes,Please label the pictures below.,NA,NA,NA,38,NA,Thanks,warmup/tuna.jpg,fish,graduated_high_school,english,male,NA,fish,NA,2,1575647505506,2,NA,This is a ,1.00,These are both,NA,clownfish,warmup2,
1167,hummingbird,Fri Dec 06 2019 09:51:45 GMT-0600 (Central Standard Time),NA,29,warmup/eagle.jpg,hummingbird,This is a ,no,1,birds,susan,eagle,yes,Please label the pictures below.,NA,NA,NA,38,NA,Thanks,warmup/colibri.jpg,birds,graduated_high_school,english,male,NA,birds,NA,3,1575647505506,1,NA,This is an ,1.00,These are both,NA,eagle,warmup2,
1167,NA,Fri Dec 06 2019 09:51:45 GMT-0600 (Central Standard Time),images/fish-parade2.png,29,NA,NA,That's a small ,no,1,fish,susan,NA,yes,You also see this one:,prenominal,You say to your friend:,clownfish,38,clownfish,Thanks,NA,NA,graduated_high_school,english,male,,NA,You see the following:,1,1575647505506,NA,images/clownfish.png,NA,1.00,,small,NA,main2,
1167,NA,Fri Dec 06 2019 09:51:45 GMT-0600 (Central Standard Time),images/bird-parade2.png,29,NA,NA,That's a big ,no,1,birds,susan,NA,yes,You also see this one:,prenominal,You say to your friend:,eagle,38,eagle,Thanks,NA,NA,graduated_high_school,english,male,,NA,You see the following:,2,1575647505506,NA,images/eagle.png,NA,1.00,,big,NA,main2,
1167,NA,Fri Dec 06 2019 09:51:45 GMT-0600 (Central Standard Time),images/dog-parade.png,29,NA,NA,That's a big ,no,1,dogs,susan,NA,yes,You also see this one:,prenominal,You say to your friend:,doberman,38,doberman,Thanks,NA,NA,graduated_high_school,english,male,,NA,You see the following:,3,1575647505506,NA,images/doberman.png,NA,1.00,,big,NA,main2,
1187,redwood,Fri Dec 06 2019 08:00:44 GMT-0800 (Pacific Standard Time),NA,29,warmup/bonsai.jpg,redwood|sequoia,This is a ,,2,trees,elizabeth,bonsai,yes,Please label the pictures below.,NA,NA,NA,30,NA,,warmup/sequoia.jpg,trees,some_college,English,male,NA,trees,NA,1,1575648044049,1,NA,This is a ,1.00,These are both,NA,bonsai,warmup1,
1187,dandellion,Fri Dec 06 2019 08:00:44 GMT-0800 (Pacific Standard Time),NA,29,warmup/sunflower.png,dandelion,This is a ,,2,flowers,elizabeth,sunflower,yes,Please label the pictures below.,NA,NA,NA,30,NA,,warmup/dandelion.jpg,flowers,some_college,English,male,NA,flowers,NA,2,1575648044049,1,NA,This is a ,1.00,These are both,NA,sunflower,warmup1,
1187,dandelion,Fri Dec 06 2019 08:00:44 GMT-0800 (Pacific Standard Time),NA,29,warmup/sunflower.png,dandelion,This is a ,,2,flowers,elizabeth,sunflower,yes,Please label the pictures below.,NA,NA,NA,30,NA,,warmup/dandelion.jpg,flowers,some_college,English,male,NA,flowers,NA,2,1575648044049,2,NA,This is a ,1.00,These are both,NA,sunflower,warmup1,
1187,chihuahua,Fri Dec 06 2019 08:00:44 GMT-0800 (Pacific Standard Time),NA,29,warmup/doberman.png,chihuahua,This is a ,,2,dogs,elizabeth,doberman,yes,Please label the pictures below.,NA,NA,NA,30,NA,,warmup/chihuahua.jpg,dogs,some_college,English,male,NA,dogs,NA,3,1575648044049,1,NA,This is a ,1.00,These are both,NA,doberman,warmup1,
1187,NA,Fri Dec 06 2019 08:00:44 GMT-0800 (Pacific Standard Time),images/flower-parade2.png,29,NA,NA,That's a big ,,2,flowers,elizabeth,NA,yes,You also see this one:,prenominal,You say to your friend:,sunflower,30,sunflower,,NA,NA,some_college,English,male,,NA,You see the following:,1,1575648044049,NA,images/sunflower.png,NA,1.00,,big,NA,main1,
1187,NA,Fri Dec 06 2019 08:00:44 GMT-0800 (Pacific Standard Time),images/dog-parade.png,29,NA,NA,That's a small ,,2,dogs,elizabeth,NA,yes,You also see this one:,prenominal,You say to your friend:,chihuahua,30,chihuahua,,NA,NA,some_college,English,male,,NA,You see the following:,2,1575648044049,NA,images/chihuahua.png,NA,1.00,,small,NA,main1,
1187,NA,Fri Dec 06 2019 08:00:44 GMT-0800 (Pacific Standard Time),images/tree-parade.png,29,NA,NA,That's a big ,,2,trees,elizabeth,NA,yes,You also see this one:,prenominal,You say to your friend:,sequoia,30,tree,,NA,NA,some_college,English,male,,NA,You see the following:,3,1575648044049,NA,images/sequoia.png,NA,1.00,,big,NA,main1,
1187,hummingbird,Fri Dec 06 2019 08:00:44 GMT-0800 (Pacific Standard Time),NA,29,warmup/eagle.jpg,hummingbird,This is a ,,2,birds,elizabeth,eagle,yes,Please label the pictures below.,NA,NA,NA,30,NA,,warmup/colibri.jpg,birds,some_college,English,male,NA,birds,NA,1,1575648044049,1,NA,This is an ,1.00,These are both,NA,eagle,warmup2,
1187,bird,Fri Dec 06 2019 08:00:44 GMT-0800 (Pacific Standard Time),NA,29,warmup/sparrow.jpg,goose,This is a ,,2,birds,elizabeth,sparrow,yes,Please label the pictures below.,NA,NA,NA,30,NA,,warmup/goose.png,bird,some_college,English,male,NA,birds,NA,2,1575648044049,1,NA,This is a ,1.00,These are both,NA,bird,warmup2,
1187,goose,Fri Dec 06 2019 08:00:44 GMT-0800 (Pacific Standard Time),NA,29,warmup/sparrow.jpg,goose,This is a ,,2,birds,elizabeth,sparrow,yes,Please label the pictures below.,NA,NA,NA,30,NA,,warmup/goose.png,birds,some_college,English,male,NA,birds,NA,2,1575648044049,2,NA,This is a ,1.00,These are both,NA,sparrow,warmup2,
1187,pug,Fri Dec 06 2019 08:00:44 GMT-0800 (Pacific Standard Time),NA,29,warmup/great-dane.jpg,pug,This is a ,,2,dogs,elizabeth,great dane,yes,Please label the pictures below.,NA,NA,NA,30,NA,,warmup/pug.jpg,dog,some_college,English,male,NA,dogs,NA,3,1575648044049,1,NA,This is a ,1.00,These are both,NA,dog,warmup2,
1187,pug,Fri Dec 06 2019 08:00:44 GMT-0800 (Pacific Standard Time),NA,29,warmup/great-dane.jpg,pug,This is a ,,2,dogs,elizabeth,great dane,yes,Please label the pictures below.,NA,NA,NA,30,NA,,warmup/pug.jpg,dogs,some_college,English,male,NA,dogs,NA,3,1575648044049,2,NA,This is a ,1.00,These are both,NA,great dane,warmup2,
1187,NA,Fri Dec 06 2019 08:00:44 GMT-0800 (Pacific Standard Time),images/bird-parade.png,29,NA,NA,That's a small ,,2,birds,elizabeth,NA,yes,You also see this one:,prenominal,You say to your friend:,sparrow,30,sparrow,,NA,NA,some_college,English,male,,NA,You see the following:,1,1575648044049,NA,images/sparrow.png,NA,1.00,,small,NA,main2,
1187,NA,Fri Dec 06 2019 08:00:44 GMT-0800 (Pacific Standard Time),images/dog-parade2.png,29,NA,NA,That's a small ,,2,dogs,elizabeth,NA,yes,You also see this one:,prenominal,You say to your friend:,pug,30,pug,,NA,NA,some_college,English,male,,NA,You see the following:,2,1575648044049,NA,images/pug.png,NA,1.00,,small,NA,main2,
1187,NA,Fri Dec 06 2019 08:00:44 GMT-0800 (Pacific Standard Time),images/bird-parade2.png,29,NA,NA,That's a big ,,2,birds,elizabeth,NA,yes,You also see this one:,prenominal,You say to your friend:,eagle,30,bird,,NA,NA,some_college,English,male,,NA,You see the following:,3,1575648044049,NA,images/eagle.png,NA,1.00,,big,NA,main2,
1226,bird,Fri Dec 06 2019 08:11:44 GMT-0800 (Pacific Standard Time),NA,29,warmup/sparrow.jpg,goose,This is a ,no,2,birds,susan,sparrow,yes,Please label the pictures below.,NA,NA,NA,30,NA,good,warmup/goose.png,birds,graduated_college,English,male,NA,birds,NA,1,1575648704334,1,NA,This is a ,1,These are both,NA,bird,warmup1,
1226,goose,Fri Dec 06 2019 08:11:44 GMT-0800 (Pacific Standard Time),NA,29,warmup/sparrow.jpg,goose,This is a ,no,2,birds,susan,sparrow,yes,Please label the pictures below.,NA,NA,NA,30,NA,good,warmup/goose.png,birds,graduated_college,English,male,NA,birds,NA,1,1575648704334,2,NA,This is a ,1,These are both,NA,sparrow,warmup1,
1226,sworfish,Fri Dec 06 2019 08:11:44 GMT-0800 (Pacific Standard Time),NA,29,warmup/goldfish.png,swordfish,This is a ,no,2,fish,susan,goldfish,yes,Please label the pictures below.,NA,NA,NA,30,NA,good,warmup/swordfish.jpg,fish,graduated_college,English,male,NA,fish,NA,2,1575648704334,1,NA,This is a ,1,These are both,NA,goldfish,warmup1,
1226,swordfish,Fri Dec 06 2019 08:11:44 GMT-0800 (Pacific Standard Time),NA,29,warmup/goldfish.png,swordfish,This is a ,no,2,fish,susan,goldfish,yes,Please label the pictures below.,NA,NA,NA,30,NA,good,warmup/swordfish.jpg,fish,graduated_college,English,male,NA,fish,NA,2,1575648704334,2,NA,This is a ,1,These are both,NA,goldfish,warmup1,
1226,dog,Fri Dec 06 2019 08:11:44 GMT-0800 (Pacific Standard Time),NA,29,warmup/great-dane.jpg,pug,This is a ,no,2,dogs,susan,great dane,yes,Please label the pictures below.,NA,NA,NA,30,NA,good,warmup/pug.jpg,gogs,graduated_college,English,male,NA,dogs,NA,3,1575648704334,1,NA,This is a ,1,These are both,NA,dog,warmup1,
1226,pug,Fri Dec 06 2019 08:11:44 GMT-0800 (Pacific Standard Time),NA,29,warmup/great-dane.jpg,pug,This is a ,no,2,dogs,susan,great dane,yes,Please label the pictures below.,NA,NA,NA,30,NA,good,warmup/pug.jpg,dogs,graduated_college,English,male,NA,dogs,NA,3,1575648704334,2,NA,This is a ,1,These are both,NA,great dane,warmup1,
1226,NA,Fri Dec 06 2019 08:11:44 GMT-0800 (Pacific Standard Time),images/dog-parade2.png,29,NA,NA,That's a big ,no,2,dogs,susan,NA,yes,You also see this one:,prenominal,You say to your friend:,great dane,30,great dane,good,NA,NA,graduated_college,English,male,,NA,You see the following:,1,1575648704334,NA,images/great-dane.png,NA,1,,big,NA,main1,
1226,NA,Fri Dec 06 2019 08:11:44 GMT-0800 (Pacific Standard Time),images/fish-parade.png,29,NA,NA,That's a big ,no,2,fish,susan,NA,yes,You also see this one:,prenominal,You say to your friend:,swordfish,30,swordfish,good,NA,NA,graduated_college,English,male,,NA,You see the following:,2,1575648704334,NA,images/swordfish.png,NA,1,,big,NA,main1,
1226,NA,Fri Dec 06 2019 08:11:44 GMT-0800 (Pacific Standard Time),images/bird-parade.png,29,NA,NA,That's a small ,no,2,birds,susan,NA,yes,You also see this one:,prenominal,You say to your friend:,sparrow,30,sparrow,good,NA,NA,graduated_college,English,male,,NA,You see the following:,3,1575648704334,NA,images/sparrow.png,NA,1,,small,NA,main1,
1226,flower,Fri Dec 06 2019 08:11:44 GMT-0800 (Pacific Standard Time),NA,29,warmup/sunflower.png,dandelion,This is a ,no,2,flowers,susan,sunflower,yes,Please label the pictures below.,NA,NA,NA,30,NA,good,warmup/dandelion.jpg,flowers,graduated_college,English,male,NA,flowers,NA,1,1575648704334,1,NA,This is a ,1,These are both,NA,sunflower,warmup2,
1226,dandelion,Fri Dec 06 2019 08:11:44 GMT-0800 (Pacific Standard Time),NA,29,warmup/sunflower.png,dandelion,This is a ,no,2,flowers,susan,sunflower,yes,Please label the pictures below.,NA,NA,NA,30,NA,good,warmup/dandelion.jpg,flowers,graduated_college,English,male,NA,flowers,NA,1,1575648704334,2,NA,This is a ,1,These are both,NA,sunflower,warmup2,
1226,tree,Fri Dec 06 2019 08:11:44 GMT-0800 (Pacific Standard Time),NA,29,warmup/bonsai.jpg,redwood|sequoia,This is a ,no,2,trees,susan,bonsai,yes,Please label the pictures below.,NA,NA,NA,30,NA,good,warmup/sequoia.jpg,tree,graduated_college,English,male,NA,trees,NA,2,1575648704334,1,NA,This is a ,1,These are both,NA,tree,warmup2,
1226,"redwood,sequoia",Fri Dec 06 2019 08:11:44 GMT-0800 (Pacific Standard Time),NA,29,warmup/bonsai.jpg,redwood|sequoia,This is a ,no,2,trees,susan,bonsai,yes,Please label the pictures below.,NA,NA,NA,30,NA,good,warmup/sequoia.jpg,trees,graduated_college,English,male,NA,trees,NA,2,1575648704334,2,NA,This is a ,1,These are both,NA,bonsai,warmup2,
1226,"redwood,sequoia",Fri Dec 06 2019 08:11:44 GMT-0800 (Pacific Standard Time),NA,29,warmup/bonsai.jpg,redwood|sequoia,This is a ,no,2,trees,susan,bonsai,yes,Please label the pictures below.,NA,NA,NA,30,NA,good,warmup/sequoia.jpg,trees,graduated_college,English,male,NA,trees,NA,2,1575648704334,3,NA,This is a ,1,These are both,NA,bonsai,warmup2,
1226,redwood,Fri Dec 06 2019 08:11:44 GMT-0800 (Pacific Standard Time),NA,29,warmup/bonsai.jpg,redwood|sequoia,This is a ,no,2,trees,susan,bonsai,yes,Please label the pictures below.,NA,NA,NA,30,NA,good,warmup/sequoia.jpg,trees,graduated_college,English,male,NA,trees,NA,2,1575648704334,4,NA,This is a ,1,These are both,NA,bonsai,warmup2,
1226,flo,Fri Dec 06 2019 08:11:44 GMT-0800 (Pacific Standard Time),NA,29,warmup/peony.png,daisy,This is a ,no,2,flowers,susan,peony,yes,Please label the pictures below.,NA,NA,NA,30,NA,good,warmup/daisy.png,flowers,graduated_college,English,male,NA,flowers,NA,3,1575648704334,1,NA,This is a ,1,These are both,NA,flo,warmup2,
1226,daisy,Fri Dec 06 2019 08:11:44 GMT-0800 (Pacific Standard Time),NA,29,warmup/peony.png,daisy,This is a ,no,2,flowers,susan,peony,yes,Please label the pictures below.,NA,NA,NA,30,NA,good,warmup/daisy.png,flowers,graduated_college,English,male,NA,flowers,NA,3,1575648704334,2,NA,This is a ,1,These are both,NA,peony,warmup2,
1226,NA,Fri Dec 06 2019 08:11:44 GMT-0800 (Pacific Standard Time),images/tree-parade.png,29,NA,NA,That's a small ,no,2,trees,susan,NA,yes,You also see this one:,prenominal,You say to your friend:,bonsai,30,tree,good,NA,NA,graduated_college,English,male,,NA,You see the following:,1,1575648704334,NA,images/bonsai.png,NA,1,,small,NA,main2,
1226,NA,Fri Dec 06 2019 08:11:44 GMT-0800 (Pacific Standard Time),images/flower-parade.png,29,NA,NA,That's a big ,no,2,flowers,susan,NA,yes,You also see this one:,prenominal,You say to your friend:,peony,30,daisy,good,NA,NA,graduated_college,English,male,,NA,You see the following:,2,1575648704334,NA,images/peony.png,NA,1,,big,NA,main2,
1226,NA,Fri Dec 06 2019 08:11:44 GMT-0800 (Pacific Standard Time),images/flower-parade2.png,29,NA,NA,That's a small ,no,2,flowers,susan,NA,yes,You also see this one:,prenominal,You say to your friend:,dandelion,30,dandelion,good,NA,NA,graduated_college,English,male,,NA,You see the following:,3,1575648704334,NA,images/dandelion.png,NA,1,,small,NA,main2,
1205,swan,Fri Dec 06 2019 11:05:21 GMT-0500 (Eastern Standard Time),NA,29,warmup/canary.jpg,swan,This is a ,Nope!,1,birds,mary,canary,yes,Please label the pictures below.,NA,NA,NA,34,NA,,warmup/swan.jpg,birds,graduated_college,English,male,NA,birds,NA,1,1575648321835,1,NA,This is a ,1.00,These are both,NA,yellowbird,warmup1,
1205,swan,Fri Dec 06 2019 11:05:21 GMT-0500 (Eastern Standard Time),NA,29,warmup/canary.jpg,swan,This is a ,Nope!,1,birds,mary,canary,yes,Please label the pictures below.,NA,NA,NA,34,NA,,warmup/swan.jpg,birds,graduated_college,English,male,NA,birds,NA,1,1575648321835,2,NA,This is a ,1.00,These are both,NA,canary,warmup1,
1205,bulldog,Fri Dec 06 2019 11:05:21 GMT-0500 (Eastern Standard Time),NA,29,warmup/great-dane.jpg,pug,This is a ,Nope!,1,dogs,mary,great dane,yes,Please label the pictures below.,NA,NA,NA,34,NA,,warmup/pug.jpg,dogs,graduated_college,English,male,NA,dogs,NA,2,1575648321835,1,NA,This is a ,1.00,These are both,NA,terrier,warmup1,
1205,pug,Fri Dec 06 2019 11:05:21 GMT-0500 (Eastern Standard Time),NA,29,warmup/great-dane.jpg,pug,This is a ,Nope!,1,dogs,mary,great dane,yes,Please label the pictures below.,NA,NA,NA,34,NA,,warmup/pug.jpg,dogs,graduated_college,English,male,NA,dogs,NA,2,1575648321835,2,NA,This is a ,1.00,These are both,NA,great dane,warmup1,
1205,chihahua,Fri Dec 06 2019 11:05:21 GMT-0500 (Eastern Standard Time),NA,29,warmup/doberman.png,chihuahua,This is a ,Nope!,1,dogs,mary,doberman,yes,Please label the pictures below.,NA,NA,NA,34,NA,,warmup/chihuahua.jpg,dogs,graduated_college,English,male,NA,dogs,NA,3,1575648321835,1,NA,This is a ,1.00,These are both,NA,rottweiler,warmup1,
1205,chihuahua,Fri Dec 06 2019 11:05:21 GMT-0500 (Eastern Standard Time),NA,29,warmup/doberman.png,chihuahua,This is a ,Nope!,1,dogs,mary,doberman,yes,Please label the pictures below.,NA,NA,NA,34,NA,,warmup/chihuahua.jpg,dogs,graduated_college,English,male,NA,dogs,NA,3,1575648321835,2,NA,This is a ,1.00,These are both,NA,doberman,warmup1,
1205,NA,Fri Dec 06 2019 11:05:21 GMT-0500 (Eastern Standard Time),images/dog-parade.png,29,NA,NA,That's a big ,Nope!,1,dogs,mary,NA,yes,You also see this one:,prenominal,You say to your friend:,doberman,34,doberman,,NA,NA,graduated_college,English,male,,NA,You see the following:,1,1575648321835,NA,images/doberman.png,NA,1.00,,big,NA,main1,
1205,NA,Fri Dec 06 2019 11:05:21 GMT-0500 (Eastern Standard Time),images/dog-parade2.png,29,NA,NA,That's a big ,Nope!,1,dogs,mary,NA,yes,You also see this one:,prenominal,You say to your friend:,great dane,34,great dane,,NA,NA,graduated_college,English,male,,NA,You see the following:,2,1575648321835,NA,images/great-dane.png,NA,1.00,,big,NA,main1,
1205,NA,Fri Dec 06 2019 11:05:21 GMT-0500 (Eastern Standard Time),images/bird-parade3.png,29,NA,NA,That's a small ,Nope!,1,birds,mary,NA,yes,You also see this one:,prenominal,You say to your friend:,canary,34,canary,,NA,NA,graduated_college,English,male,,NA,You see the following:,3,1575648321835,NA,images/canary.png,NA,1.00,,small,NA,main1,
1205,daisy,Fri Dec 06 2019 11:05:21 GMT-0500 (Eastern Standard Time),NA,29,warmup/peony.png,daisy,This is a ,Nope!,1,flowers,mary,peony,yes,Please label the pictures below.,NA,NA,NA,34,NA,,warmup/daisy.png,flowers,graduated_college,English,male,NA,flowers,NA,1,1575648321835,1,NA,This is a ,1.00,These are both,NA,rose,warmup2,
1205,daisy,Fri Dec 06 2019 11:05:21 GMT-0500 (Eastern Standard Time),NA,29,warmup/peony.png,daisy,This is a ,Nope!,1,flowers,mary,peony,yes,Please label the pictures below.,NA,NA,NA,34,NA,,warmup/daisy.png,flowers,graduated_college,English,male,NA,flowers,NA,1,1575648321835,2,NA,This is a ,1.00,These are both,NA,peony,warmup2,
1205,goose,Fri Dec 06 2019 11:05:21 GMT-0500 (Eastern Standard Time),NA,29,warmup/sparrow.jpg,goose,This is a ,Nope!,1,birds,mary,sparrow,yes,Please label the pictures below.,NA,NA,NA,34,NA,,warmup/goose.png,birds,graduated_college,English,male,NA,birds,NA,2,1575648321835,1,NA,This is a ,1.00,These are both,NA,swallow,warmup2,
1205,goose,Fri Dec 06 2019 11:05:21 GMT-0500 (Eastern Standard Time),NA,29,warmup/sparrow.jpg,goose,This is a ,Nope!,1,birds,mary,sparrow,yes,Please label the pictures below.,NA,NA,NA,34,NA,,warmup/goose.png,birds,graduated_college,English,male,NA,birds,NA,2,1575648321835,2,NA,This is a ,1.00,These are both,NA,sparrow,warmup2,
1205,marlin,Fri Dec 06 2019 11:05:21 GMT-0500 (Eastern Standard Time),NA,29,warmup/goldfish.png,swordfish,This is a ,Nope!,1,fish,mary,goldfish,yes,Please label the pictures below.,NA,NA,NA,34,NA,,warmup/swordfish.jpg,fish,graduated_college,English,male,NA,fish,NA,3,1575648321835,1,NA,This is a ,1.00,These are both,NA,puffer,warmup2,
1205,swordfish,Fri Dec 06 2019 11:05:21 GMT-0500 (Eastern Standard Time),NA,29,warmup/goldfish.png,swordfish,This is a ,Nope!,1,fish,mary,goldfish,yes,Please label the pictures below.,NA,NA,NA,34,NA,,warmup/swordfish.jpg,fish,graduated_college,English,male,NA,fish,NA,3,1575648321835,2,NA,This is a ,1.00,These are both,NA,goldfish,warmup2,
1205,NA,Fri Dec 06 2019 11:05:21 GMT-0500 (Eastern Standard Time),images/flower-parade.png,29,NA,NA,That's a small ,Nope!,1,flowers,mary,NA,yes,You also see this one:,prenominal,You say to your friend:,daisy,34,flower,,NA,NA,graduated_college,English,male,,NA,You see the following:,1,1575648321835,NA,images/daisy.png,NA,1.00,,small,NA,main2,
1205,NA,Fri Dec 06 2019 11:05:21 GMT-0500 (Eastern Standard Time),images/fish-parade.png,29,NA,NA,That's a big ,Nope!,1,fish,mary,NA,yes,You also see this one:,prenominal,You say to your friend:,swordfish,34,fish,,NA,NA,graduated_college,English,male,,NA,You see the following:,2,1575648321835,NA,images/swordfish.png,NA,1.00,,big,NA,main2,
1205,NA,Fri Dec 06 2019 11:05:21 GMT-0500 (Eastern Standard Time),images/bird-parade.png,29,NA,NA,That's a small ,Nope!,1,birds,mary,NA,yes,You also see this one:,prenominal,You say to your friend:,sparrow,34,bird,,NA,NA,graduated_college,English,male,,NA,You see the following:,3,1575648321835,NA,images/sparrow.png,NA,1.00,,small,NA,main2,
1237,weed,Fri Dec 06 2019 10:11:00 GMT-0600 (Central Standard Time),NA,29,warmup/sunflower.png,dandelion,This is a ,no,1,flowers,sarah,sunflower,,Please label the pictures below.,NA,NA,NA,30,NA,thanks!,warmup/dandelion.jpg,plants,some_college,english,male,NA,flowers,NA,1,1575648660403,1,NA,This is a ,1.25,These are both,NA,sunflower,warmup1,
1237,dandelion,Fri Dec 06 2019 10:11:00 GMT-0600 (Central Standard Time),NA,29,warmup/sunflower.png,dandelion,This is a ,no,1,flowers,sarah,sunflower,,Please label the pictures below.,NA,NA,NA,30,NA,thanks!,warmup/dandelion.jpg,plants,some_college,english,male,NA,flowers,NA,1,1575648660403,2,NA,This is a ,1.25,These are both,NA,sunflower,warmup1,
1237,dandelion,Fri Dec 06 2019 10:11:00 GMT-0600 (Central Standard Time),NA,29,warmup/sunflower.png,dandelion,This is a ,no,1,flowers,sarah,sunflower,,Please label the pictures below.,NA,NA,NA,30,NA,thanks!,warmup/dandelion.jpg,flowers,some_college,english,male,NA,flowers,NA,1,1575648660403,3,NA,This is a ,1.25,These are both,NA,sunflower,warmup1,
1237,pug,Fri Dec 06 2019 10:11:00 GMT-0600 (Central Standard Time),NA,29,warmup/great-dane.jpg,pug,This is a ,no,1,dogs,sarah,great dane,,Please label the pictures below.,NA,NA,NA,30,NA,thanks!,warmup/pug.jpg,dogs,some_college,english,male,NA,dogs,NA,2,1575648660403,1,NA,This is a ,1.25,These are both,NA,great dane,warmup1,
1237,redwood,Fri Dec 06 2019 10:11:00 GMT-0600 (Central Standard Time),NA,29,warmup/bonsai.jpg,redwood|sequoia,This is a ,no,1,trees,sarah,bonsai,,Please label the pictures below.,NA,NA,NA,30,NA,thanks!,warmup/sequoia.jpg,trees,some_college,english,male,NA,trees,NA,3,1575648660403,1,NA,This is a ,1.25,These are both,NA,bonzi,warmup1,
1237,redwood,Fri Dec 06 2019 10:11:00 GMT-0600 (Central Standard Time),NA,29,warmup/bonsai.jpg,redwood|sequoia,This is a ,no,1,trees,sarah,bonsai,,Please label the pictures below.,NA,NA,NA,30,NA,thanks!,warmup/sequoia.jpg,trees,some_college,english,male,NA,trees,NA,3,1575648660403,2,NA,This is a ,1.25,These are both,NA,bonsai,warmup1,
1237,NA,Fri Dec 06 2019 10:11:00 GMT-0600 (Central Standard Time),images/tree-parade.png,29,NA,NA,That's a big ,no,1,trees,sarah,NA,,You also see this one:,prenominal,You say to your friend:,sequoia,30,tree,thanks!,NA,NA,some_college,english,male,,NA,You see the following:,1,1575648660403,NA,images/sequoia.png,NA,1.25,,big,NA,main1,
1237,NA,Fri Dec 06 2019 10:11:00 GMT-0600 (Central Standard Time),images/flower-parade2.png,29,NA,NA,That's a small ,no,1,flowers,sarah,NA,,You also see this one:,prenominal,You say to your friend:,dandelion,30,dandelion,thanks!,NA,NA,some_college,english,male,,NA,You see the following:,2,1575648660403,NA,images/dandelion.png,NA,1.25,,small,NA,main1,
1237,NA,Fri Dec 06 2019 10:11:00 GMT-0600 (Central Standard Time),images/dog-parade2.png,29,NA,NA,That's a big ,no,1,dogs,sarah,NA,,You also see this one:,prenominal,You say to your friend:,great dane,30,dog,thanks!,NA,NA,some_college,english,male,,NA,You see the following:,3,1575648660403,NA,images/great-dane.png,NA,1.25,,big,NA,main1,
1237,salmon,Fri Dec 06 2019 10:11:00 GMT-0600 (Central Standard Time),NA,29,warmup/clownfish.jpg,tuna,This is a ,no,1,fish,sarah,clownfish,,Please label the pictures below.,NA,NA,NA,30,NA,thanks!,warmup/tuna.jpg,fish,some_college,english,male,NA,fish,NA,1,1575648660403,1,NA,This is a ,1.25,These are both,NA,clown fish,warmup2,
1237,tuna,Fri Dec 06 2019 10:11:00 GMT-0600 (Central Standard Time),NA,29,warmup/clownfish.jpg,tuna,This is a ,no,1,fish,sarah,clownfish,,Please label the pictures below.,NA,NA,NA,30,NA,thanks!,warmup/tuna.jpg,fish,some_college,english,male,NA,fish,NA,1,1575648660403,2,NA,This is a ,1.25,These are both,NA,clownfish,warmup2,
1237,swordfish,Fri Dec 06 2019 10:11:00 GMT-0600 (Central Standard Time),NA,29,warmup/goldfish.png,swordfish,This is a ,no,1,fish,sarah,goldfish,,Please label the pictures below.,NA,NA,NA,30,NA,thanks!,warmup/swordfish.jpg,fish,some_college,english,male,NA,fish,NA,2,1575648660403,1,NA,This is a ,1.25,These are both,NA,goldfish,warmup2,
1237,swan,Fri Dec 06 2019 10:11:00 GMT-0600 (Central Standard Time),NA,29,warmup/canary.jpg,swan,This is a ,no,1,birds,sarah,canary,,Please label the pictures below.,NA,NA,NA,30,NA,thanks!,warmup/swan.jpg,birds,some_college,english,male,NA,birds,NA,3,1575648660403,1,NA,This is a ,1.25,These are both,NA,bird,warmup2,
1237,swan,Fri Dec 06 2019 10:11:00 GMT-0600 (Central Standard Time),NA,29,warmup/canary.jpg,swan,This is a ,no,1,birds,sarah,canary,,Please label the pictures below.,NA,NA,NA,30,NA,thanks!,warmup/swan.jpg,birds,some_college,english,male,NA,birds,NA,3,1575648660403,2,NA,This is a ,1.25,These are both,NA,canary,warmup2,
1237,NA,Fri Dec 06 2019 10:11:00 GMT-0600 (Central Standard Time),images/fish-parade2.png,29,NA,NA,That's a small ,no,1,fish,sarah,NA,,You also see this one:,prenominal,You say to your friend:,clownfish,30,clownfish,thanks!,NA,NA,some_college,english,male,,NA,You see the following:,1,1575648660403,NA,images/clownfish.png,NA,1.25,,small,NA,main2,
1237,NA,Fri Dec 06 2019 10:11:00 GMT-0600 (Central Standard Time),images/fish-parade.png,29,NA,NA,That's a small ,no,1,fish,sarah,NA,,You also see this one:,prenominal,You say to your friend:,goldfish,30,goldfish,thanks!,NA,NA,some_college,english,male,,NA,You see the following:,2,1575648660403,NA,images/goldfish.png,NA,1.25,,small,NA,main2,
1237,NA,Fri Dec 06 2019 10:11:00 GMT-0600 (Central Standard Time),images/bird-parade3.png,29,NA,NA,That's a big ,no,1,birds,sarah,NA,,You also see this one:,prenominal,You say to your friend:,swan,30,swan,thanks!,NA,NA,some_college,english,male,,NA,You see the following:,3,1575648660403,NA,images/swan.png,NA,1.25,,big,NA,main2,
1298,dog,Mon Dec 09 2019 14:33:28 GMT-0600 (Central Standard Time),NA,29,warmup/great-dane.jpg,pug,This is a ,I had no problems. Good experience.,2,dogs,barbara,great dane,yes,Please label the pictures below.,NA,NA,NA,34,NA,Thanks.,warmup/pug.jpg,dogs,some_college,English,male,NA,dogs,NA,1,1575923608431,1,NA,This is a ,1.5,These are both,NA,dog,warmup1,
1298,pug,Mon Dec 09 2019 14:33:28 GMT-0600 (Central Standard Time),NA,29,warmup/great-dane.jpg,pug,This is a ,I had no problems. Good experience.,2,dogs,barbara,great dane,yes,Please label the pictures below.,NA,NA,NA,34,NA,Thanks.,warmup/pug.jpg,dogs,some_college,English,male,NA,dogs,NA,1,1575923608431,2,NA,This is a ,1.5,These are both,NA,great dane,warmup1,
1298,dandelion,Mon Dec 09 2019 14:33:28 GMT-0600 (Central Standard Time),NA,29,warmup/peony.png,daisy,This is a ,I had no problems. Good experience.,2,flowers,barbara,peony,yes,Please label the pictures below.,NA,NA,NA,34,NA,Thanks.,warmup/daisy.png,flowers,some_college,English,male,NA,flowers,NA,2,1575923608431,1,NA,This is a ,1.5,These are both,NA,tulip,warmup1,
1298,daisy,Mon Dec 09 2019 14:33:28 GMT-0600 (Central Standard Time),NA,29,warmup/peony.png,daisy,This is a ,I had no problems. Good experience.,2,flowers,barbara,peony,yes,Please label the pictures below.,NA,NA,NA,34,NA,Thanks.,warmup/daisy.png,flowers,some_college,English,male,NA,flowers,NA,2,1575923608431,2,NA,This is a ,1.5,These are both,NA,peony,warmup1,
1298,tuna fish,Mon Dec 09 2019 14:33:28 GMT-0600 (Central Standard Time),NA,29,warmup/clownfish.jpg,tuna,This is a ,I had no problems. Good experience.,2,fish,barbara,clownfish,yes,Please label the pictures below.,NA,NA,NA,34,NA,Thanks.,warmup/tuna.jpg,fish,some_college,English,male,NA,fish,NA,3,1575923608431,1,NA,This is a ,1.5,These are both,NA,clown fish,warmup1,
1298,tuna,Mon Dec 09 2019 14:33:28 GMT-0600 (Central Standard Time),NA,29,warmup/clownfish.jpg,tuna,This is a ,I had no problems. Good experience.,2,fish,barbara,clownfish,yes,Please label the pictures below.,NA,NA,NA,34,NA,Thanks.,warmup/tuna.jpg,fish,some_college,English,male,NA,fish,NA,3,1575923608431,2,NA,This is a ,1.5,These are both,NA,clownfish,warmup1,
1298,NA,Mon Dec 09 2019 14:33:28 GMT-0600 (Central Standard Time),images/fish-parade2.png,29,NA,NA,That's a small ,I had no problems. Good experience.,2,fish,barbara,NA,yes,You also see this one:,prenominal,You say to your friend:,clownfish,34,fish,Thanks.,NA,NA,some_college,English,male,,NA,You see the following:,1,1575923608431,NA,images/clownfish.png,NA,1.5,,small,NA,main1,
1298,NA,Mon Dec 09 2019 14:33:28 GMT-0600 (Central Standard Time),images/dog-parade2.png,29,NA,NA,That's a big ,I had no problems. Good experience.,2,dogs,barbara,NA,yes,You also see this one:,prenominal,You say to your friend:,great dane,34,dog,Thanks.,NA,NA,some_college,English,male,,NA,You see the following:,2,1575923608431,NA,images/great-dane.png,NA,1.5,,big,NA,main1,
1298,NA,Mon Dec 09 2019 14:33:28 GMT-0600 (Central Standard Time),images/flower-parade.png,29,NA,NA,That's a big ,I had no problems. Good experience.,2,flowers,barbara,NA,yes,You also see this one:,prenominal,You say to your friend:,peony,34,peony,Thanks.,NA,NA,some_college,English,male,,NA,You see the following:,3,1575923608431,NA,images/peony.png,NA,1.5,,big,NA,main1,
1298,chihuahua,Mon Dec 09 2019 14:33:28 GMT-0600 (Central Standard Time),NA,29,warmup/doberman.png,chihuahua,This is a ,I had no problems. Good experience.,2,dogs,barbara,doberman,yes,Please label the pictures below.,NA,NA,NA,34,NA,Thanks.,warmup/chihuahua.jpg,dogs,some_college,English,male,NA,dogs,NA,1,1575923608431,1,NA,This is a ,1.5,These are both,NA,doberman,warmup2,
1298,hummingbird,Mon Dec 09 2019 14:33:28 GMT-0600 (Central Standard Time),NA,29,warmup/eagle.jpg,hummingbird,This is a ,I had no problems. Good experience.,2,birds,barbara,eagle,yes,Please label the pictures below.,NA,NA,NA,34,NA,Thanks.,warmup/colibri.jpg,birds,some_college,English,male,NA,birds,NA,2,1575923608431,1,NA,This is an ,1.5,These are both,NA,eagle,warmup2,
1298,swordfish,Mon Dec 09 2019 14:33:28 GMT-0600 (Central Standard Time),NA,29,warmup/goldfish.png,swordfish,This is a ,I had no problems. Good experience.,2,fish,barbara,goldfish,yes,Please label the pictures below.,NA,NA,NA,34,NA,Thanks.,warmup/swordfish.jpg,fish,some_college,English,male,NA,fish,NA,3,1575923608431,1,NA,This is a ,1.5,These are both,NA,goldfish,warmup2,
1298,NA,Mon Dec 09 2019 14:33:28 GMT-0600 (Central Standard Time),images/fish-parade.png,29,NA,NA,That's a small ,I had no problems. Good experience.,2,fish,barbara,NA,yes,You also see this one:,prenominal,You say to your friend:,goldfish,34,goldfish,Thanks.,NA,NA,some_college,English,male,,NA,You see the following:,1,1575923608431,NA,images/goldfish.png,NA,1.5,,small,NA,main2,
