submission_id,question,response1,sentence_left,startDate,context_picture,pic,experiment_id,picture2,correct1,question1,problems,enjoyment,item,botresponse,trials,correct2,pic_spec,understand,text,condition,sentence,age,response,comments,ref_spec,picture1,response3,education,target_size,name,languages,sex,RT,correct3,context,trial_number,startTime,attempts,question3,fairprice,question2,response2,correct,trial_name,utterance
1443,<i>What do you think Speaker A meant? </i>,NA,The Empire State Building is tall relative to other ,Thu Dec 12 2019 12:34:57 GMT-0600 (Central Standard Time),NA,NA,30,NA,NA,NA,no,1,NA,jessica,1,NA,NA,yes,NA,NA,"<b> Speaker A: ""The Empire State Building is tall.""</b>",28,buildings,,NA,NA,NA,graduated_high_school,NA,comp_class_warmup,english,female,NA,NA,In the main trials you will be asked to rephrase something a person said. The utterance will contain a word that is <i>relative</i> and your task is to figure out what it is relative to. <br /> <br /> For example: <br /><br />,1,1576175697444,1,NA,1.00,NA,NA,"buildings, skyscrapers, houses, constructions (choose one)",comp_class_warmup,NA
1443,NA,tree,NA,Thu Dec 12 2019 12:34:57 GMT-0600 (Central Standard Time),NA,NA,30,warmup/bonsai.jpg,redwood or sequoia (choose one),This is a ,no,1,trees,jessica,NA,bonsai,NA,yes,Please label the pictures below.,NA,NA,28,NA,,NA,warmup/sequoia.png,trees,graduated_high_school,NA,NA,english,female,NA,trees,NA,1,1576175697444,1,This is a ,1.00,These are both,bonsai,NA,warmup1,NA
1443,NA,redwood,NA,Thu Dec 12 2019 12:34:57 GMT-0600 (Central Standard Time),NA,NA,30,warmup/bonsai.jpg,redwood or sequoia (choose one),This is a ,no,1,trees,jessica,NA,bonsai,NA,yes,Please label the pictures below.,NA,NA,28,NA,,NA,warmup/sequoia.png,trees,graduated_high_school,NA,NA,english,female,NA,trees,NA,1,1576175697444,2,This is a ,1.00,These are both,bonsai,NA,warmup1,NA
1443,NA,daisy,NA,Thu Dec 12 2019 12:34:57 GMT-0600 (Central Standard Time),NA,NA,30,warmup/sunflower.png,dandelion,This is a ,no,1,flowers,jessica,NA,sunflower,NA,yes,Please label the pictures below.,NA,NA,28,NA,,NA,warmup/dandelion.jpg,flowers,graduated_high_school,NA,NA,english,female,NA,flowers,NA,2,1576175697444,1,This is a ,1.00,These are both,sunflower,NA,warmup1,NA
1443,NA,dandelion,NA,Thu Dec 12 2019 12:34:57 GMT-0600 (Central Standard Time),NA,NA,30,warmup/sunflower.png,dandelion,This is a ,no,1,flowers,jessica,NA,sunflower,NA,yes,Please label the pictures below.,NA,NA,28,NA,,NA,warmup/dandelion.jpg,flowers,graduated_high_school,NA,NA,english,female,NA,flowers,NA,2,1576175697444,2,This is a ,1.00,These are both,sunflower,NA,warmup1,NA
1443,NA,hummindbird,NA,Thu Dec 12 2019 12:34:57 GMT-0600 (Central Standard Time),NA,NA,30,warmup/eagle.jpg,hummingbird,This is a ,no,1,birds,jessica,NA,eagle,NA,yes,Please label the pictures below.,NA,NA,28,NA,,NA,warmup/colibri.jpg,birds,graduated_high_school,NA,NA,english,female,NA,birds,NA,3,1576175697444,1,This is an ,1.00,These are both,eagle,NA,warmup1,NA
1443,NA,hummingbird,NA,Thu Dec 12 2019 12:34:57 GMT-0600 (Central Standard Time),NA,NA,30,warmup/eagle.jpg,hummingbird,This is a ,no,1,birds,jessica,NA,eagle,NA,yes,Please label the pictures below.,NA,NA,28,NA,,NA,warmup/colibri.jpg,birds,graduated_high_school,NA,NA,english,female,NA,birds,NA,3,1576175697444,2,This is an ,1.00,These are both,eagle,NA,warmup1,NA
1443,What do you think your friend meant?,NA,It is big  relative to other ,Thu Dec 12 2019 12:34:57 GMT-0600 (Central Standard Time),images/flower-parade-sunflower.png,images/sunflower.png,30,NA,NA,NA,no,1,flowers,jessica,NA,NA,1,yes,"Your friend runs far ahead of you, and you see him in the distance: ",1,NA,28,flowers,,1,NA,NA,graduated_high_school,big,NA,english,female,,NA,You and your friend see the following:,1,1576175697444,NA,NA,1.00,NA,NA,NA,custom_main_text1,Your friend says: </br><b>That sunflower is big.</b>
1443,What do you think your friend meant?,NA,It is small  relative to other ,Thu Dec 12 2019 12:34:57 GMT-0600 (Central Standard Time),images/flower-parade-basic.png,images/dandelion.png,30,NA,NA,NA,no,1,flowers,jessica,NA,NA,0,yes,"Your friend runs far ahead of you, and you see him in the distance: ",1,NA,28,flowers,,2,NA,NA,graduated_high_school,small,NA,english,female,,NA,You and your friend see the following:,2,1576175697444,NA,NA,1.00,NA,NA,NA,custom_main_text1,Your friend says: </br><b>That one is small.</b>
1443,What do you think your friend meant?,NA,It is big  relative to other ,Thu Dec 12 2019 12:34:57 GMT-0600 (Central Standard Time),images/bird-parade-basic.png,images/eagle.png,30,NA,NA,NA,no,1,birds,jessica,NA,NA,0,yes,"Your friend runs far ahead of you, and you see him in the distance: ",0,NA,28,birds,,0,NA,NA,graduated_high_school,big,NA,english,female,,NA,You and your friend see the following:,3,1576175697444,NA,NA,1.00,NA,NA,NA,custom_main_text1,Your friend says: </br><b>That's a big bird.</b>
1443,What do you think your friend meant?,NA,It is small  relative to other ,Thu Dec 12 2019 12:34:57 GMT-0600 (Central Standard Time),images/bird-parade-hummingbird.png,images/hummingbird.png,30,NA,NA,NA,no,1,birds,jessica,NA,NA,1,yes,"Your friend runs far ahead of you, and you see him in the distance: ",0,NA,28,birds,,1,NA,NA,graduated_high_school,small,NA,english,female,,NA,You and your friend see the following:,4,1576175697444,NA,NA,1.00,NA,NA,NA,custom_main_text1,Your friend says: </br><b>That's a small hummingbird.</b>
1443,What do you think your friend meant?,NA,It is small  relative to other ,Thu Dec 12 2019 12:34:57 GMT-0600 (Central Standard Time),images/tree-parade-basic.png,images/bonsai.png,30,NA,NA,NA,no,1,trees,jessica,NA,NA,0,yes,"Your friend runs far ahead of you, and you see him in the distance: ",1,NA,28,trees,,0,NA,NA,graduated_high_school,small,NA,english,female,,NA,You and your friend see the following:,5,1576175697444,NA,NA,1.00,NA,NA,NA,custom_main_text1,Your friend says: </br><b>That tree is small.</b>
1443,What do you think your friend meant?,NA,It is big  relative to other ,Thu Dec 12 2019 12:34:57 GMT-0600 (Central Standard Time),images/tree-parade-redwood.png,images/redwood.png,30,NA,NA,NA,no,1,trees,jessica,NA,NA,1,yes,"Your friend runs far ahead of you, and you see him in the distance: ",1,NA,28,trees,,2,NA,NA,graduated_high_school,big,NA,english,female,,NA,You and your friend see the following:,6,1576175697444,NA,NA,1.00,NA,NA,NA,custom_main_text1,Your friend says: </br><b>That one is big.</b>
1443,NA,pug,NA,Thu Dec 12 2019 12:34:57 GMT-0600 (Central Standard Time),NA,NA,30,warmup/great-dane.jpg,pug,This is a ,no,1,dogs,jessica,NA,great dane,NA,yes,Please label the pictures below.,NA,NA,28,NA,,NA,warmup/pug.jpg,dogs,graduated_high_school,NA,NA,english,female,NA,dogs,NA,1,1576175697444,1,This is a ,1.00,These are both,greyhound,NA,warmup2,NA
1443,NA,pug,NA,Thu Dec 12 2019 12:34:57 GMT-0600 (Central Standard Time),NA,NA,30,warmup/great-dane.jpg,pug,This is a ,no,1,dogs,jessica,NA,great dane,NA,yes,Please label the pictures below.,NA,NA,28,NA,,NA,warmup/pug.jpg,dogs,graduated_high_school,NA,NA,english,female,NA,dogs,NA,1,1576175697444,2,This is a ,1.00,These are both,great dane,NA,warmup2,NA
1443,NA,chihuahua,NA,Thu Dec 12 2019 12:34:57 GMT-0600 (Central Standard Time),NA,NA,30,warmup/doberman.png,chihuahua,This is a ,no,1,dogs,jessica,NA,doberman,NA,yes,Please label the pictures below.,NA,NA,28,NA,,NA,warmup/chihuahua.jpg,dogs,graduated_high_school,NA,NA,english,female,NA,dogs,NA,2,1576175697444,1,This is a ,1.00,These are both,doberman,NA,warmup2,NA
1443,NA,swordfish,NA,Thu Dec 12 2019 12:34:57 GMT-0600 (Central Standard Time),NA,NA,30,warmup/goldfish.png,swordfish,This is a ,no,1,fish,jessica,NA,goldfish,NA,yes,Please label the pictures below.,NA,NA,28,NA,,NA,warmup/swordfish.jpg,fish,graduated_high_school,NA,NA,english,female,NA,fish,NA,3,1576175697444,1,This is a ,1.00,These are both,goldfish,NA,warmup2,NA
1443,What do you think your friend meant?,NA,It is big  relative to other ,Thu Dec 12 2019 12:34:57 GMT-0600 (Central Standard Time),images/dog-parade-basic2.png,images/great-dane.png,30,NA,NA,NA,no,1,dogs2,jessica,NA,NA,0,yes,"Your friend runs far ahead of you, and you see him in the distance: ",0,NA,28,dogs,,1,NA,NA,graduated_high_school,big,NA,english,female,,NA,You and your friend see the following:,1,1576175697444,NA,NA,1.00,NA,NA,NA,custom_main_text2,Your friend says: </br><b>That's a big great dane.</b>
1443,What do you think your friend meant?,NA,It is small  relative to other ,Thu Dec 12 2019 12:34:57 GMT-0600 (Central Standard Time),images/fish-parade-goldfish.png,images/goldfish.png,30,NA,NA,NA,no,1,fish,jessica,NA,NA,1,yes,"Your friend runs far ahead of you, and you see him in the distance: ",0,NA,28,fish,,1,NA,NA,graduated_high_school,small,NA,english,female,,NA,You and your friend see the following:,2,1576175697444,NA,NA,1.00,NA,NA,NA,custom_main_text2,Your friend says: </br><b>That's a small goldfish.</b>
1443,What do you think your friend meant?,NA,It is big  relative to other ,Thu Dec 12 2019 12:34:57 GMT-0600 (Central Standard Time),images/fish-parade-basic.png,images/swordfish.png,30,NA,NA,NA,no,1,fish,jessica,NA,NA,0,yes,"Your friend runs far ahead of you, and you see him in the distance: ",1,NA,28,fish,,2,NA,NA,graduated_high_school,big,NA,english,female,,NA,You and your friend see the following:,3,1576175697444,NA,NA,1.00,NA,NA,NA,custom_main_text2,Your friend says: </br><b>That one is big.</b>
1443,What do you think your friend meant?,NA,It is big  relative to other ,Thu Dec 12 2019 12:34:57 GMT-0600 (Central Standard Time),images/dog-parade-doberman.png,images/doberman.png,30,NA,NA,NA,no,1,dogs1,jessica,NA,NA,1,yes,"Your friend runs far ahead of you, and you see him in the distance: ",1,NA,28,dog,,2,NA,NA,graduated_high_school,big,NA,english,female,,NA,You and your friend see the following:,4,1576175697444,NA,NA,1.00,NA,NA,NA,custom_main_text2,Your friend says: </br><b>That one is big.</b>
1443,What do you think your friend meant?,NA,It is small  relative to other ,Thu Dec 12 2019 12:34:57 GMT-0600 (Central Standard Time),images/dog-parade-pug.png,images/pug.png,30,NA,NA,NA,no,1,dogs2,jessica,NA,NA,1,yes,"Your friend runs far ahead of you, and you see him in the distance: ",0,NA,28,dogs,,1,NA,NA,graduated_high_school,small,NA,english,female,,NA,You and your friend see the following:,5,1576175697444,NA,NA,1.00,NA,NA,NA,custom_main_text2,Your friend says: </br><b>That's a small dog.</b>
1443,What do you think your friend meant?,NA,It is small  relative to other ,Thu Dec 12 2019 12:34:57 GMT-0600 (Central Standard Time),images/dog-parade-basic.png,images/chihuahua.png,30,NA,NA,NA,no,1,dogs1,jessica,NA,NA,0,yes,"Your friend runs far ahead of you, and you see him in the distance: ",0,NA,28,dogs,,0,NA,NA,graduated_high_school,small,NA,english,female,,NA,You and your friend see the following:,6,1576175697444,NA,NA,1.00,NA,NA,NA,custom_main_text2,Your friend says: </br><b>That's a small dog.</b>
1445,<i>What do you think Speaker A meant? </i>,NA,The Empire State Building is tall relative to other ,Thu Dec 12 2019 13:30:28 GMT-0500 (Eastern Standard Time),NA,NA,30,NA,NA,NA,no,2,NA,jessica,1,NA,NA,yes,NA,NA,"<b> Speaker A: ""The Empire State Building is tall.""</b>",35,buildings,I don't really know dog breeds or tree types,NA,NA,NA,higher_degree,NA,comp_class_warmup,English,male,NA,NA,In the main trials you will be asked to rephrase something a person said. The utterance will contain a word that is <i>relative</i> and your task is to figure out what it is relative to. <br /> <br /> For example: <br /><br />,1,1576175428434,1,NA,1.50,NA,NA,"buildings, skyscrapers, houses, constructions (choose one)",comp_class_warmup,NA
1445,NA,dog,NA,Thu Dec 12 2019 13:30:28 GMT-0500 (Eastern Standard Time),NA,NA,30,warmup/great-dane.jpg,pug,This is a ,no,2,dogs,jessica,NA,great dane,NA,yes,Please label the pictures below.,NA,NA,35,NA,I don't really know dog breeds or tree types,NA,warmup/pug.jpg,dogs,higher_degree,NA,NA,English,male,NA,dogs,NA,1,1576175428434,1,This is a ,1.50,These are both,dog,NA,warmup1,NA
1445,NA,pug,NA,Thu Dec 12 2019 13:30:28 GMT-0500 (Eastern Standard Time),NA,NA,30,warmup/great-dane.jpg,pug,This is a ,no,2,dogs,jessica,NA,great dane,NA,yes,Please label the pictures below.,NA,NA,35,NA,I don't really know dog breeds or tree types,NA,warmup/pug.jpg,dogs,higher_degree,NA,NA,English,male,NA,dogs,NA,1,1576175428434,2,This is a ,1.50,These are both,great dane,NA,warmup1,NA
1445,NA,dandelion,NA,Thu Dec 12 2019 13:30:28 GMT-0500 (Eastern Standard Time),NA,NA,30,warmup/sunflower.png,dandelion,This is a ,no,2,flowers,jessica,NA,sunflower,NA,yes,Please label the pictures below.,NA,NA,35,NA,I don't really know dog breeds or tree types,NA,warmup/dandelion.jpg,flower,higher_degree,NA,NA,English,male,NA,flowers,NA,2,1576175428434,1,This is a ,1.50,These are both,sunflower,NA,warmup1,NA
1445,NA,dandelion,NA,Thu Dec 12 2019 13:30:28 GMT-0500 (Eastern Standard Time),NA,NA,30,warmup/sunflower.png,dandelion,This is a ,no,2,flowers,jessica,NA,sunflower,NA,yes,Please label the pictures below.,NA,NA,35,NA,I don't really know dog breeds or tree types,NA,warmup/dandelion.jpg,flowers,higher_degree,NA,NA,English,male,NA,flowers,NA,2,1576175428434,2,This is a ,1.50,These are both,sunflower,NA,warmup1,NA
1445,NA,hummingbird,NA,Thu Dec 12 2019 13:30:28 GMT-0500 (Eastern Standard Time),NA,NA,30,warmup/eagle.jpg,hummingbird,This is a ,no,2,birds,jessica,NA,eagle,NA,yes,Please label the pictures below.,NA,NA,35,NA,I don't really know dog breeds or tree types,NA,warmup/colibri.jpg,birds,higher_degree,NA,NA,English,male,NA,birds,NA,3,1576175428434,1,This is an ,1.50,These are both,eagle,NA,warmup1,NA
1445,What do you think your friend meant?,NA,It is small  relative to other ,Thu Dec 12 2019 13:30:28 GMT-0500 (Eastern Standard Time),images/flower-parade-basic.png,images/dandelion.png,30,NA,NA,NA,no,2,flowers,jessica,NA,NA,0,yes,"Your friend runs far ahead of you, and you see him in the distance: ",1,NA,35,flowers,I don't really know dog breeds or tree types,1,NA,NA,higher_degree,small,NA,English,male,,NA,You and your friend see the following:,1,1576175428434,NA,NA,1.50,NA,NA,NA,custom_main_text1,Your friend says: </br><b>That dandelion is small.</b>
1445,What do you think your friend meant?,NA,It is small  relative to other ,Thu Dec 12 2019 13:30:28 GMT-0500 (Eastern Standard Time),images/bird-parade-basic.png,images/hummingbird.png,30,NA,NA,NA,no,2,birds,jessica,NA,NA,0,yes,"Your friend runs far ahead of you, and you see him in the distance: ",0,NA,35,birds,I don't really know dog breeds or tree types,0,NA,NA,higher_degree,small,NA,English,male,,NA,You and your friend see the following:,2,1576175428434,NA,NA,1.50,NA,NA,NA,custom_main_text1,Your friend says: </br><b>That's a small bird.</b>
1445,What do you think your friend meant?,NA,It is small  relative to other ,Thu Dec 12 2019 13:30:28 GMT-0500 (Eastern Standard Time),images/dog-parade-pug.png,images/pug.png,30,NA,NA,NA,no,2,dogs2,jessica,NA,NA,1,yes,"Your friend runs far ahead of you, and you see him in the distance: ",0,NA,35,dogs,I don't really know dog breeds or tree types,1,NA,NA,higher_degree,small,NA,English,male,,NA,You and your friend see the following:,3,1576175428434,NA,NA,1.50,NA,NA,NA,custom_main_text1,Your friend says: </br><b>That's a small dog.</b>
1445,What do you think your friend meant?,NA,It is big  relative to other ,Thu Dec 12 2019 13:30:28 GMT-0500 (Eastern Standard Time),images/bird-parade-eagle.png,images/eagle.png,30,NA,NA,NA,no,2,birds,jessica,NA,NA,1,yes,"Your friend runs far ahead of you, and you see him in the distance: ",0,NA,35,birds,I don't really know dog breeds or tree types,1,NA,NA,higher_degree,big,NA,English,male,,NA,You and your friend see the following:,4,1576175428434,NA,NA,1.50,NA,NA,NA,custom_main_text1,Your friend says: </br><b>That's a big eagle.</b>
1445,What do you think your friend meant?,NA,It is big  relative to other ,Thu Dec 12 2019 13:30:28 GMT-0500 (Eastern Standard Time),images/flower-parade-sunflower.png,images/sunflower.png,30,NA,NA,NA,no,2,flowers,jessica,NA,NA,1,yes,"Your friend runs far ahead of you, and you see him in the distance: ",1,NA,35,flowers,I don't really know dog breeds or tree types,0,NA,NA,higher_degree,big,NA,English,male,,NA,You and your friend see the following:,5,1576175428434,NA,NA,1.50,NA,NA,NA,custom_main_text1,Your friend says: </br><b>That flower is big.</b>
1445,What do you think your friend meant?,NA,It is big  relative to other ,Thu Dec 12 2019 13:30:28 GMT-0500 (Eastern Standard Time),images/dog-parade-basic2.png,images/great-dane.png,30,NA,NA,NA,no,2,dogs2,jessica,NA,NA,0,yes,"Your friend runs far ahead of you, and you see him in the distance: ",1,NA,35,dogs,I don't really know dog breeds or tree types,1,NA,NA,higher_degree,big,NA,English,male,,NA,You and your friend see the following:,6,1576175428434,NA,NA,1.50,NA,NA,NA,custom_main_text1,Your friend says: </br><b>That great dane is big.</b>
1445,NA,tree,NA,Thu Dec 12 2019 13:30:28 GMT-0500 (Eastern Standard Time),NA,NA,30,warmup/bonsai.jpg,redwood or sequoia (choose one),This is a ,no,2,trees,jessica,NA,bonsai,NA,yes,Please label the pictures below.,NA,NA,35,NA,I don't really know dog breeds or tree types,NA,warmup/sequoia.png,trees,higher_degree,NA,NA,English,male,NA,trees,NA,1,1576175428434,1,This is a ,1.50,These are both,bonsai tree,NA,warmup2,NA
1445,NA,redwood,NA,Thu Dec 12 2019 13:30:28 GMT-0500 (Eastern Standard Time),NA,NA,30,warmup/bonsai.jpg,redwood or sequoia (choose one),This is a ,no,2,trees,jessica,NA,bonsai,NA,yes,Please label the pictures below.,NA,NA,35,NA,I don't really know dog breeds or tree types,NA,warmup/sequoia.png,trees,higher_degree,NA,NA,English,male,NA,trees,NA,1,1576175428434,2,This is a ,1.50,These are both,bonsai tree,NA,warmup2,NA
1445,NA,redwood,NA,Thu Dec 12 2019 13:30:28 GMT-0500 (Eastern Standard Time),NA,NA,30,warmup/bonsai.jpg,redwood or sequoia (choose one),This is a ,no,2,trees,jessica,NA,bonsai,NA,yes,Please label the pictures below.,NA,NA,35,NA,I don't really know dog breeds or tree types,NA,warmup/sequoia.png,trees,higher_degree,NA,NA,English,male,NA,trees,NA,1,1576175428434,3,This is a ,1.50,These are both,bonsai,NA,warmup2,NA
1445,NA,chuwawa,NA,Thu Dec 12 2019 13:30:28 GMT-0500 (Eastern Standard Time),NA,NA,30,warmup/doberman.png,chihuahua,This is a ,no,2,dogs,jessica,NA,doberman,NA,yes,Please label the pictures below.,NA,NA,35,NA,I don't really know dog breeds or tree types,NA,warmup/chihuahua.jpg,dogs,higher_degree,NA,NA,English,male,NA,dogs,NA,2,1576175428434,1,This is a ,1.50,These are both,big dog,NA,warmup2,NA
1445,NA,chihuahua,NA,Thu Dec 12 2019 13:30:28 GMT-0500 (Eastern Standard Time),NA,NA,30,warmup/doberman.png,chihuahua,This is a ,no,2,dogs,jessica,NA,doberman,NA,yes,Please label the pictures below.,NA,NA,35,NA,I don't really know dog breeds or tree types,NA,warmup/chihuahua.jpg,dogs,higher_degree,NA,NA,English,male,NA,dogs,NA,2,1576175428434,2,This is a ,1.50,These are both,doberman,NA,warmup2,NA
1445,NA,swordfish,NA,Thu Dec 12 2019 13:30:28 GMT-0500 (Eastern Standard Time),NA,NA,30,warmup/goldfish.png,swordfish,This is a ,no,2,fish,jessica,NA,goldfish,NA,yes,Please label the pictures below.,NA,NA,35,NA,I don't really know dog breeds or tree types,NA,warmup/swordfish.jpg,fish,higher_degree,NA,NA,English,male,NA,fish,NA,3,1576175428434,1,This is a ,1.50,These are both,goldfish,NA,warmup2,NA
1445,What do you think your friend meant?,NA,It is big  relative to other ,Thu Dec 12 2019 13:30:28 GMT-0500 (Eastern Standard Time),images/tree-parade-basic.png,images/redwood.png,30,NA,NA,NA,no,2,trees,jessica,NA,NA,0,yes,"Your friend runs far ahead of you, and you see him in the distance: ",1,NA,35,trees,I don't really know dog breeds or tree types,2,NA,NA,higher_degree,big,NA,English,male,,NA,You and your friend see the following:,1,1576175428434,NA,NA,1.50,NA,NA,NA,custom_main_text2,Your friend says: </br><b>That one is big.</b>
1445,What do you think your friend meant?,NA,It is big  relative to other ,Thu Dec 12 2019 13:30:28 GMT-0500 (Eastern Standard Time),images/dog-parade-basic.png,images/doberman.png,30,NA,NA,NA,no,2,dogs1,jessica,NA,NA,0,yes,"Your friend runs far ahead of you, and you see him in the distance: ",1,NA,35,dogs,I don't really know dog breeds or tree types,2,NA,NA,higher_degree,big,NA,English,male,,NA,You and your friend see the following:,2,1576175428434,NA,NA,1.50,NA,NA,NA,custom_main_text2,Your friend says: </br><b>That one is big.</b>
1445,What do you think your friend meant?,NA,It is big  relative to other ,Thu Dec 12 2019 13:30:28 GMT-0500 (Eastern Standard Time),images/fish-parade-basic.png,images/swordfish.png,30,NA,NA,NA,no,2,fish,jessica,NA,NA,0,yes,"Your friend runs far ahead of you, and you see him in the distance: ",0,NA,35,fish,I don't really know dog breeds or tree types,2,NA,NA,higher_degree,big,NA,English,male,,NA,You and your friend see the following:,3,1576175428434,NA,NA,1.50,NA,NA,NA,custom_main_text2,Your friend says: </br><b>That's a big one.</b>
1445,What do you think your friend meant?,NA,It is small  relative to other ,Thu Dec 12 2019 13:30:28 GMT-0500 (Eastern Standard Time),images/fish-parade-goldfish.png,images/goldfish.png,30,NA,NA,NA,no,2,fish,jessica,NA,NA,1,yes,"Your friend runs far ahead of you, and you see him in the distance: ",0,NA,35,fish,I don't really know dog breeds or tree types,0,NA,NA,higher_degree,small,NA,English,male,,NA,You and your friend see the following:,4,1576175428434,NA,NA,1.50,NA,NA,NA,custom_main_text2,Your friend says: </br><b>That's a small fish.</b>
1445,What do you think your friend meant?,NA,It is small  relative to other ,Thu Dec 12 2019 13:30:28 GMT-0500 (Eastern Standard Time),images/dog-parade-chihuahua.png,images/chihuahua.png,30,NA,NA,NA,no,2,dogs1,jessica,NA,NA,1,yes,"Your friend runs far ahead of you, and you see him in the distance: ",0,NA,35,chihuahuas,I don't really know dog breeds or tree types,1,NA,NA,higher_degree,small,NA,English,male,,NA,You and your friend see the following:,5,1576175428434,NA,NA,1.50,NA,NA,NA,custom_main_text2,Your friend says: </br><b>That's a small chihuahua.</b>
1445,What do you think your friend meant?,NA,It is small  relative to other ,Thu Dec 12 2019 13:30:28 GMT-0500 (Eastern Standard Time),images/tree-parade-bonsai.png,images/bonsai.png,30,NA,NA,NA,no,2,trees,jessica,NA,NA,1,yes,"Your friend runs far ahead of you, and you see him in the distance: ",1,NA,35,bonsai,I don't really know dog breeds or tree types,2,NA,NA,higher_degree,small,NA,English,male,,NA,You and your friend see the following:,6,1576175428434,NA,NA,1.50,NA,NA,NA,custom_main_text2,Your friend says: </br><b>That one is small.</b>
1448,<i>What do you think Speaker A meant? </i>,NA,The Empire State Building is tall relative to other ,Thu Dec 12 2019 13:30:48 GMT-0500 (Eastern Standard Time),NA,NA,30,NA,NA,NA,nope,1,NA,patricia,1,NA,NA,yes,NA,NA,"<b> Speaker A: ""The Empire State Building is tall.""</b>",33,buildings,nothing to report,NA,NA,NA,graduated_high_school,NA,comp_class_warmup,english,male,NA,NA,In the main trials you will be asked to rephrase something a person said. The utterance will contain a word that is <i>relative</i> and your task is to figure out what it is relative to. <br /> <br /> For example: <br /><br />,1,1576175448975,1,NA,5.00,NA,NA,"buildings, skyscrapers, houses, constructions (choose one)",comp_class_warmup,NA
1448,NA,large tree,NA,Thu Dec 12 2019 13:30:48 GMT-0500 (Eastern Standard Time),NA,NA,30,warmup/bonsai.jpg,redwood or sequoia (choose one),This is a ,nope,1,trees,patricia,NA,bonsai,NA,yes,Please label the pictures below.,NA,NA,33,NA,nothing to report,NA,warmup/sequoia.png,trees,graduated_high_school,NA,NA,english,male,NA,trees,NA,1,1576175448975,1,This is a ,5.00,These are both,small tree,NA,warmup1,NA
1448,NA,redwood,NA,Thu Dec 12 2019 13:30:48 GMT-0500 (Eastern Standard Time),NA,NA,30,warmup/bonsai.jpg,redwood or sequoia (choose one),This is a ,nope,1,trees,patricia,NA,bonsai,NA,yes,Please label the pictures below.,NA,NA,33,NA,nothing to report,NA,warmup/sequoia.png,trees,graduated_high_school,NA,NA,english,male,NA,trees,NA,1,1576175448975,2,This is a ,5.00,These are both,bonsai,NA,warmup1,NA
1448,NA,bulldog,NA,Thu Dec 12 2019 13:30:48 GMT-0500 (Eastern Standard Time),NA,NA,30,warmup/great-dane.jpg,pug,This is a ,nope,1,dogs,patricia,NA,great dane,NA,yes,Please label the pictures below.,NA,NA,33,NA,nothing to report,NA,warmup/pug.jpg,dogs,graduated_high_school,NA,NA,english,male,NA,dogs,NA,2,1576175448975,1,This is a ,5.00,These are both,great dame,NA,warmup1,NA
1448,NA,pug,NA,Thu Dec 12 2019 13:30:48 GMT-0500 (Eastern Standard Time),NA,NA,30,warmup/great-dane.jpg,pug,This is a ,nope,1,dogs,patricia,NA,great dane,NA,yes,Please label the pictures below.,NA,NA,33,NA,nothing to report,NA,warmup/pug.jpg,dogs,graduated_high_school,NA,NA,english,male,NA,dogs,NA,2,1576175448975,2,This is a ,5.00,These are both,great dane,NA,warmup1,NA
1448,NA,humming bird,NA,Thu Dec 12 2019 13:30:48 GMT-0500 (Eastern Standard Time),NA,NA,30,warmup/eagle.jpg,hummingbird,This is a ,nope,1,birds,patricia,NA,eagle,NA,yes,Please label the pictures below.,NA,NA,33,NA,nothing to report,NA,warmup/colibri.jpg,birds,graduated_high_school,NA,NA,english,male,NA,birds,NA,3,1576175448975,1,This is an ,5.00,These are both,eagle,NA,warmup1,NA
1448,NA,hummingbird,NA,Thu Dec 12 2019 13:30:48 GMT-0500 (Eastern Standard Time),NA,NA,30,warmup/eagle.jpg,hummingbird,This is a ,nope,1,birds,patricia,NA,eagle,NA,yes,Please label the pictures below.,NA,NA,33,NA,nothing to report,NA,warmup/colibri.jpg,birds,graduated_high_school,NA,NA,english,male,NA,birds,NA,3,1576175448975,2,This is an ,5.00,These are both,eagle,NA,warmup1,NA
1448,What do you think your friend meant?,NA,It is small  relative to other ,Thu Dec 12 2019 13:30:48 GMT-0500 (Eastern Standard Time),images/bird-parade-hummingbird.png,images/hummingbird.png,30,NA,NA,NA,nope,1,birds,patricia,NA,NA,1,yes,"Your friend runs far ahead of you, and you see him in the distance: ",0,NA,33,birds,nothing to report,0,NA,NA,graduated_high_school,small,NA,english,male,,NA,You and your friend see the following:,1,1576175448975,NA,NA,5.00,NA,NA,NA,custom_main_text1,Your friend says: </br><b>That's a small bird.</b>
1448,What do you think your friend meant?,NA,It is big  relative to other ,Thu Dec 12 2019 13:30:48 GMT-0500 (Eastern Standard Time),images/bird-parade-basic.png,images/eagle.png,30,NA,NA,NA,nope,1,birds,patricia,NA,NA,0,yes,"Your friend runs far ahead of you, and you see him in the distance: ",0,NA,33,birds,nothing to report,1,NA,NA,graduated_high_school,big,NA,english,male,,NA,You and your friend see the following:,2,1576175448975,NA,NA,5.00,NA,NA,NA,custom_main_text1,Your friend says: </br><b>That's a big eagle.</b>
1448,What do you think your friend meant?,NA,It is small  relative to other ,Thu Dec 12 2019 13:30:48 GMT-0500 (Eastern Standard Time),images/dog-parade-pug.png,images/pug.png,30,NA,NA,NA,nope,1,dogs2,patricia,NA,NA,1,yes,"Your friend runs far ahead of you, and you see him in the distance: ",0,NA,33,pugs,nothing to report,1,NA,NA,graduated_high_school,small,NA,english,male,,NA,You and your friend see the following:,3,1576175448975,NA,NA,5.00,NA,NA,NA,custom_main_text1,Your friend says: </br><b>That's a small pug.</b>
1448,What do you think your friend meant?,NA,It is small  relative to other ,Thu Dec 12 2019 13:30:48 GMT-0500 (Eastern Standard Time),images/tree-parade-basic.png,images/bonsai.png,30,NA,NA,NA,nope,1,trees,patricia,NA,NA,0,yes,"Your friend runs far ahead of you, and you see him in the distance: ",1,NA,33,trees,nothing to report,2,NA,NA,graduated_high_school,small,NA,english,male,,NA,You and your friend see the following:,4,1576175448975,NA,NA,5.00,NA,NA,NA,custom_main_text1,Your friend says: </br><b>That one is small.</b>
1448,What do you think your friend meant?,NA,It is big  relative to other ,Thu Dec 12 2019 13:30:48 GMT-0500 (Eastern Standard Time),images/dog-parade-basic2.png,images/great-dane.png,30,NA,NA,NA,nope,1,dogs2,patricia,NA,NA,0,yes,"Your friend runs far ahead of you, and you see him in the distance: ",0,NA,33,great danes,nothing to report,1,NA,NA,graduated_high_school,big,NA,english,male,,NA,You and your friend see the following:,5,1576175448975,NA,NA,5.00,NA,NA,NA,custom_main_text1,Your friend says: </br><b>That's a big great dane.</b>
1448,What do you think your friend meant?,NA,It is big  relative to other ,Thu Dec 12 2019 13:30:48 GMT-0500 (Eastern Standard Time),images/tree-parade-redwood.png,images/redwood.png,30,NA,NA,NA,nope,1,trees,patricia,NA,NA,1,yes,"Your friend runs far ahead of you, and you see him in the distance: ",0,NA,33,trees,nothing to report,0,NA,NA,graduated_high_school,big,NA,english,male,,NA,You and your friend see the following:,6,1576175448975,NA,NA,5.00,NA,NA,NA,custom_main_text1,Your friend says: </br><b>That's a big tree.</b>
1448,NA,puppy,NA,Thu Dec 12 2019 13:30:48 GMT-0500 (Eastern Standard Time),NA,NA,30,warmup/doberman.png,chihuahua,This is a ,nope,1,dogs,patricia,NA,doberman,NA,yes,Please label the pictures below.,NA,NA,33,NA,nothing to report,NA,warmup/chihuahua.jpg,dogs,graduated_high_school,NA,NA,english,male,NA,dogs,NA,1,1576175448975,1,This is a ,5.00,These are both,doberman,NA,warmup2,NA
1448,NA,chihuahua,NA,Thu Dec 12 2019 13:30:48 GMT-0500 (Eastern Standard Time),NA,NA,30,warmup/doberman.png,chihuahua,This is a ,nope,1,dogs,patricia,NA,doberman,NA,yes,Please label the pictures below.,NA,NA,33,NA,nothing to report,NA,warmup/chihuahua.jpg,dogs,graduated_high_school,NA,NA,english,male,NA,dogs,NA,1,1576175448975,2,This is a ,5.00,These are both,doberman,NA,warmup2,NA
1448,NA,shark,NA,Thu Dec 12 2019 13:30:48 GMT-0500 (Eastern Standard Time),NA,NA,30,warmup/goldfish.png,swordfish,This is a ,nope,1,fish,patricia,NA,goldfish,NA,yes,Please label the pictures below.,NA,NA,33,NA,nothing to report,NA,warmup/swordfish.jpg,fish,graduated_high_school,NA,NA,english,male,NA,fish,NA,2,1576175448975,1,This is a ,5.00,These are both,goldfish,NA,warmup2,NA
1448,NA,swordfish,NA,Thu Dec 12 2019 13:30:48 GMT-0500 (Eastern Standard Time),NA,NA,30,warmup/goldfish.png,swordfish,This is a ,nope,1,fish,patricia,NA,goldfish,NA,yes,Please label the pictures below.,NA,NA,33,NA,nothing to report,NA,warmup/swordfish.jpg,fish,graduated_high_school,NA,NA,english,male,NA,fish,NA,2,1576175448975,2,This is a ,5.00,These are both,goldfish,NA,warmup2,NA
1448,NA,daisy,NA,Thu Dec 12 2019 13:30:48 GMT-0500 (Eastern Standard Time),NA,NA,30,warmup/sunflower.png,dandelion,This is a ,nope,1,flowers,patricia,NA,sunflower,NA,yes,Please label the pictures below.,NA,NA,33,NA,nothing to report,NA,warmup/dandelion.jpg,plants,graduated_high_school,NA,NA,english,male,NA,flowers,NA,3,1576175448975,1,This is a ,5.00,These are both,sunflower,NA,warmup2,NA
1448,NA,dandelion,NA,Thu Dec 12 2019 13:30:48 GMT-0500 (Eastern Standard Time),NA,NA,30,warmup/sunflower.png,dandelion,This is a ,nope,1,flowers,patricia,NA,sunflower,NA,yes,Please label the pictures below.,NA,NA,33,NA,nothing to report,NA,warmup/dandelion.jpg,plants,graduated_high_school,NA,NA,english,male,NA,flowers,NA,3,1576175448975,2,This is a ,5.00,These are both,sunflower,NA,warmup2,NA
1448,NA,dandelion,NA,Thu Dec 12 2019 13:30:48 GMT-0500 (Eastern Standard Time),NA,NA,30,warmup/sunflower.png,dandelion,This is a ,nope,1,flowers,patricia,NA,sunflower,NA,yes,Please label the pictures below.,NA,NA,33,NA,nothing to report,NA,warmup/dandelion.jpg,plants,graduated_high_school,NA,NA,english,male,NA,flowers,NA,3,1576175448975,3,This is a ,5.00,These are both,sunflower,NA,warmup2,NA
1448,NA,dandelion,NA,Thu Dec 12 2019 13:30:48 GMT-0500 (Eastern Standard Time),NA,NA,30,warmup/sunflower.png,dandelion,This is a ,nope,1,flowers,patricia,NA,sunflower,NA,yes,Please label the pictures below.,NA,NA,33,NA,nothing to report,NA,warmup/dandelion.jpg,flowers,graduated_high_school,NA,NA,english,male,NA,flowers,NA,3,1576175448975,4,This is a ,5.00,These are both,sunflower,NA,warmup2,NA
1448,What do you think your friend meant?,NA,It is big  relative to other ,Thu Dec 12 2019 13:30:48 GMT-0500 (Eastern Standard Time),images/flower-parade-sunflower.png,images/sunflower.png,30,NA,NA,NA,nope,1,flowers,patricia,NA,NA,1,yes,"Your friend runs far ahead of you, and you see him in the distance: ",1,NA,33,sunflowers,nothing to report,2,NA,NA,graduated_high_school,big,NA,english,male,,NA,You and your friend see the following:,1,1576175448975,NA,NA,5.00,NA,NA,NA,custom_main_text2,Your friend says: </br><b>That one is big.</b>
1448,What do you think your friend meant?,NA,It is big  relative to other ,Thu Dec 12 2019 13:30:48 GMT-0500 (Eastern Standard Time),images/dog-parade-basic.png,images/doberman.png,30,NA,NA,NA,nope,1,dogs1,patricia,NA,NA,0,yes,"Your friend runs far ahead of you, and you see him in the distance: ",1,NA,33,dobermen,nothing to report,2,NA,NA,graduated_high_school,big,NA,english,male,,NA,You and your friend see the following:,2,1576175448975,NA,NA,5.00,NA,NA,NA,custom_main_text2,Your friend says: </br><b>That one is big.</b>
1448,What do you think your friend meant?,NA,It is big  relative to other ,Thu Dec 12 2019 13:30:48 GMT-0500 (Eastern Standard Time),images/fish-parade-basic.png,images/swordfish.png,30,NA,NA,NA,nope,1,fish,patricia,NA,NA,0,yes,"Your friend runs far ahead of you, and you see him in the distance: ",0,NA,33,swordfish,nothing to report,0,NA,NA,graduated_high_school,big,NA,english,male,,NA,You and your friend see the following:,3,1576175448975,NA,NA,5.00,NA,NA,NA,custom_main_text2,Your friend says: </br><b>That's a big fish.</b>
1448,What do you think your friend meant?,NA,It is small  relative to other ,Thu Dec 12 2019 13:30:48 GMT-0500 (Eastern Standard Time),images/flower-parade-basic.png,images/dandelion.png,30,NA,NA,NA,nope,1,flowers,patricia,NA,NA,0,yes,"Your friend runs far ahead of you, and you see him in the distance: ",1,NA,33,dandelions,nothing to report,0,NA,NA,graduated_high_school,small,NA,english,male,,NA,You and your friend see the following:,4,1576175448975,NA,NA,5.00,NA,NA,NA,custom_main_text2,Your friend says: </br><b>That flower is small.</b>
1448,What do you think your friend meant?,NA,It is small  relative to other ,Thu Dec 12 2019 13:30:48 GMT-0500 (Eastern Standard Time),images/dog-parade-chihuahua.png,images/chihuahua.png,30,NA,NA,NA,nope,1,dogs1,patricia,NA,NA,1,yes,"Your friend runs far ahead of you, and you see him in the distance: ",1,NA,33,chihuahuas,nothing to report,2,NA,NA,graduated_high_school,small,NA,english,male,,NA,You and your friend see the following:,5,1576175448975,NA,NA,5.00,NA,NA,NA,custom_main_text2,Your friend says: </br><b>That one is small.</b>
1448,What do you think your friend meant?,NA,It is small  relative to other ,Thu Dec 12 2019 13:30:48 GMT-0500 (Eastern Standard Time),images/fish-parade-goldfish.png,images/goldfish.png,30,NA,NA,NA,nope,1,fish,patricia,NA,NA,1,yes,"Your friend runs far ahead of you, and you see him in the distance: ",1,NA,33,fish,nothing to report,1,NA,NA,graduated_high_school,small,NA,english,male,,NA,You and your friend see the following:,6,1576175448975,NA,NA,5.00,NA,NA,NA,custom_main_text2,Your friend says: </br><b>That goldfish is small.</b>
1455,<i>What do you think Speaker A meant? </i>,NA,The Empire State Building is tall relative to other ,Thu Dec 12 2019 13:31:33 GMT-0500 (Eastern Standard Time),NA,NA,30,NA,NA,NA,no,2,NA,mary,1,NA,NA,yes,NA,NA,"<b> Speaker A: ""The Empire State Building is tall.""</b>",35,buildings,None,NA,NA,NA,some_college,NA,comp_class_warmup,English,female,NA,NA,In the main trials you will be asked to rephrase something a person said. The utterance will contain a word that is <i>relative</i> and your task is to figure out what it is relative to. <br /> <br /> For example: <br /><br />,1,1576175493725,1,NA,1.2,NA,NA,"buildings, skyscrapers, houses, constructions (choose one)",comp_class_warmup,NA
1455,NA,small,NA,Thu Dec 12 2019 13:31:33 GMT-0500 (Eastern Standard Time),NA,NA,30,warmup/great-dane.jpg,pug,This is a ,no,2,dogs,mary,NA,great dane,NA,yes,Please label the pictures below.,NA,NA,35,NA,None,NA,warmup/pug.jpg,dogs,some_college,NA,NA,English,female,NA,dogs,NA,1,1576175493725,1,This is a ,1.2,These are both,large,NA,warmup1,NA
1455,NA,pug,NA,Thu Dec 12 2019 13:31:33 GMT-0500 (Eastern Standard Time),NA,NA,30,warmup/great-dane.jpg,pug,This is a ,no,2,dogs,mary,NA,great dane,NA,yes,Please label the pictures below.,NA,NA,35,NA,None,NA,warmup/pug.jpg,dogs,some_college,NA,NA,English,female,NA,dogs,NA,1,1576175493725,2,This is a ,1.2,These are both,great dane,NA,warmup1,NA
1455,NA,swordfish,NA,Thu Dec 12 2019 13:31:33 GMT-0500 (Eastern Standard Time),NA,NA,30,warmup/goldfish.png,swordfish,This is a ,no,2,fish,mary,NA,goldfish,NA,yes,Please label the pictures below.,NA,NA,35,NA,None,NA,warmup/swordfish.jpg,fish,some_college,NA,NA,English,female,NA,fish,NA,2,1576175493725,1,This is a ,1.2,These are both,goldfish,NA,warmup1,NA
1455,NA,tree,NA,Thu Dec 12 2019 13:31:33 GMT-0500 (Eastern Standard Time),NA,NA,30,warmup/bonsai.jpg,redwood or sequoia (choose one),This is a ,no,2,trees,mary,NA,bonsai,NA,yes,Please label the pictures below.,NA,NA,35,NA,None,NA,warmup/sequoia.png,plants,some_college,NA,NA,English,female,NA,trees,NA,3,1576175493725,1,This is a ,1.2,These are both,bonsai,NA,warmup1,NA
1455,NA,redwood,NA,Thu Dec 12 2019 13:31:33 GMT-0500 (Eastern Standard Time),NA,NA,30,warmup/bonsai.jpg,redwood or sequoia (choose one),This is a ,no,2,trees,mary,NA,bonsai,NA,yes,Please label the pictures below.,NA,NA,35,NA,None,NA,warmup/sequoia.png,trees,some_college,NA,NA,English,female,NA,trees,NA,3,1576175493725,2,This is a ,1.2,These are both,bonsai,NA,warmup1,NA
1455,What do you think your friend meant?,NA,It is big  relative to other ,Thu Dec 12 2019 13:31:33 GMT-0500 (Eastern Standard Time),images/tree-parade-basic.png,images/redwood.png,30,NA,NA,NA,no,2,trees,mary,NA,NA,0,yes,"Your friend runs far ahead of you, and you see him in the distance: ",1,NA,35,trees,None,2,NA,NA,some_college,big,NA,English,female,,NA,You and your friend see the following:,1,1576175493725,NA,NA,1.2,NA,NA,NA,custom_main_text1,Your friend says: </br><b>That one is big.</b>
1455,What do you think your friend meant?,NA,It is small  relative to other ,Thu Dec 12 2019 13:31:33 GMT-0500 (Eastern Standard Time),images/fish-parade-goldfish.png,images/goldfish.png,30,NA,NA,NA,no,2,fish,mary,NA,NA,1,yes,"Your friend runs far ahead of you, and you see him in the distance: ",0,NA,35,goldfish,None,2,NA,NA,some_college,small,NA,English,female,,NA,You and your friend see the following:,2,1576175493725,NA,NA,1.2,NA,NA,NA,custom_main_text1,Your friend says: </br><b>That's a small one.</b>
1455,What do you think your friend meant?,NA,It is small  relative to other ,Thu Dec 12 2019 13:31:33 GMT-0500 (Eastern Standard Time),images/tree-parade-bonsai.png,images/bonsai.png,30,NA,NA,NA,no,2,trees,mary,NA,NA,1,yes,"Your friend runs far ahead of you, and you see him in the distance: ",0,NA,35,trees,None,0,NA,NA,some_college,small,NA,English,female,,NA,You and your friend see the following:,3,1576175493725,NA,NA,1.2,NA,NA,NA,custom_main_text1,Your friend says: </br><b>That's a small tree.</b>
1455,What do you think your friend meant?,NA,It is big  relative to other ,Thu Dec 12 2019 13:31:33 GMT-0500 (Eastern Standard Time),images/dog-parade-basic2.png,images/great-dane.png,30,NA,NA,NA,no,2,dogs2,mary,NA,NA,0,yes,"Your friend runs far ahead of you, and you see him in the distance: ",0,NA,35,dogs,None,0,NA,NA,some_college,big,NA,English,female,,NA,You and your friend see the following:,4,1576175493725,NA,NA,1.2,NA,NA,NA,custom_main_text1,Your friend says: </br><b>That's a big dog.</b>
1455,What do you think your friend meant?,NA,It is big  relative to other ,Thu Dec 12 2019 13:31:33 GMT-0500 (Eastern Standard Time),images/fish-parade-basic.png,images/swordfish.png,30,NA,NA,NA,no,2,fish,mary,NA,NA,0,yes,"Your friend runs far ahead of you, and you see him in the distance: ",1,NA,35,fish,None,1,NA,NA,some_college,big,NA,English,female,,NA,You and your friend see the following:,5,1576175493725,NA,NA,1.2,NA,NA,NA,custom_main_text1,Your friend says: </br><b>That swordfish is big.</b>
1455,What do you think your friend meant?,NA,It is small  relative to other ,Thu Dec 12 2019 13:31:33 GMT-0500 (Eastern Standard Time),images/dog-parade-pug.png,images/pug.png,30,NA,NA,NA,no,2,dogs2,mary,NA,NA,1,yes,"Your friend runs far ahead of you, and you see him in the distance: ",1,NA,35,dogs,None,0,NA,NA,some_college,small,NA,English,female,,NA,You and your friend see the following:,6,1576175493725,NA,NA,1.2,NA,NA,NA,custom_main_text1,Your friend says: </br><b>That one is small.</b>
1455,NA,chihuahua,NA,Thu Dec 12 2019 13:31:33 GMT-0500 (Eastern Standard Time),NA,NA,30,warmup/doberman.png,chihuahua,This is a ,no,2,dogs,mary,NA,doberman,NA,yes,Please label the pictures below.,NA,NA,35,NA,None,NA,warmup/chihuahua.jpg,dogs,some_college,NA,NA,English,female,NA,dogs,NA,1,1576175493725,1,This is a ,1.2,These are both,st. bernard,NA,warmup2,NA
1455,NA,chihuahua,NA,Thu Dec 12 2019 13:31:33 GMT-0500 (Eastern Standard Time),NA,NA,30,warmup/doberman.png,chihuahua,This is a ,no,2,dogs,mary,NA,doberman,NA,yes,Please label the pictures below.,NA,NA,35,NA,None,NA,warmup/chihuahua.jpg,dogs,some_college,NA,NA,English,female,NA,dogs,NA,1,1576175493725,2,This is a ,1.2,These are both,doberman,NA,warmup2,NA
1455,NA,hummingbird,NA,Thu Dec 12 2019 13:31:33 GMT-0500 (Eastern Standard Time),NA,NA,30,warmup/eagle.jpg,hummingbird,This is a ,no,2,birds,mary,NA,eagle,NA,yes,Please label the pictures below.,NA,NA,35,NA,None,NA,warmup/colibri.jpg,birds,some_college,NA,NA,English,female,NA,birds,NA,2,1576175493725,1,This is an ,1.2,These are both,eagle,NA,warmup2,NA
1455,NA,dandelion,NA,Thu Dec 12 2019 13:31:33 GMT-0500 (Eastern Standard Time),NA,NA,30,warmup/sunflower.png,dandelion,This is a ,no,2,flowers,mary,NA,sunflower,NA,yes,Please label the pictures below.,NA,NA,35,NA,None,NA,warmup/dandelion.jpg,flowers,some_college,NA,NA,English,female,NA,flowers,NA,3,1576175493725,1,This is a ,1.2,These are both,sunflower,NA,warmup2,NA
1455,What do you think your friend meant?,NA,It is big  relative to other ,Thu Dec 12 2019 13:31:33 GMT-0500 (Eastern Standard Time),images/flower-parade-sunflower.png,images/sunflower.png,30,NA,NA,NA,no,2,flowers,mary,NA,NA,1,yes,"Your friend runs far ahead of you, and you see him in the distance: ",0,NA,35,flowers,None,0,NA,NA,some_college,big,NA,English,female,,NA,You and your friend see the following:,1,1576175493725,NA,NA,1.2,NA,NA,NA,custom_main_text2,Your friend says: </br><b>That's a big flower.</b>
1455,What do you think your friend meant?,NA,It is small  relative to other ,Thu Dec 12 2019 13:31:33 GMT-0500 (Eastern Standard Time),images/flower-parade-basic.png,images/dandelion.png,30,NA,NA,NA,no,2,flowers,mary,NA,NA,0,yes,"Your friend runs far ahead of you, and you see him in the distance: ",1,NA,35,flowers,None,1,NA,NA,some_college,small,NA,English,female,,NA,You and your friend see the following:,2,1576175493725,NA,NA,1.2,NA,NA,NA,custom_main_text2,Your friend says: </br><b>That dandelion is small.</b>
1455,What do you think your friend meant?,NA,It is big  relative to other ,Thu Dec 12 2019 13:31:33 GMT-0500 (Eastern Standard Time),images/bird-parade-eagle.png,images/eagle.png,30,NA,NA,NA,no,2,birds,mary,NA,NA,1,yes,"Your friend runs far ahead of you, and you see him in the distance: ",0,NA,35,eagles,None,0,NA,NA,some_college,big,NA,English,female,,NA,You and your friend see the following:,3,1576175493725,NA,NA,1.2,NA,NA,NA,custom_main_text2,Your friend says: </br><b>That's a big bird.</b>
1455,What do you think your friend meant?,NA,It is small  relative to other ,Thu Dec 12 2019 13:31:33 GMT-0500 (Eastern Standard Time),images/dog-parade-basic.png,images/chihuahua.png,30,NA,NA,NA,no,2,dogs1,mary,NA,NA,0,yes,"Your friend runs far ahead of you, and you see him in the distance: ",1,NA,35,dogs,None,1,NA,NA,some_college,small,NA,English,female,,NA,You and your friend see the following:,4,1576175493725,NA,NA,1.2,NA,NA,NA,custom_main_text2,Your friend says: </br><b>That chihuahua is small.</b>
1455,What do you think your friend meant?,NA,It is small  relative to other ,Thu Dec 12 2019 13:31:33 GMT-0500 (Eastern Standard Time),images/bird-parade-basic.png,images/hummingbird.png,30,NA,NA,NA,no,2,birds,mary,NA,NA,0,yes,"Your friend runs far ahead of you, and you see him in the distance: ",0,NA,35,birds,None,1,NA,NA,some_college,small,NA,English,female,,NA,You and your friend see the following:,5,1576175493725,NA,NA,1.2,NA,NA,NA,custom_main_text2,Your friend says: </br><b>That's a small hummingbird.</b>
1455,What do you think your friend meant?,NA,It is big  relative to other ,Thu Dec 12 2019 13:31:33 GMT-0500 (Eastern Standard Time),images/dog-parade-doberman.png,images/doberman.png,30,NA,NA,NA,no,2,dogs1,mary,NA,NA,1,yes,"Your friend runs far ahead of you, and you see him in the distance: ",1,NA,35,dobermans,None,2,NA,NA,some_college,big,NA,English,female,,NA,You and your friend see the following:,6,1576175493725,NA,NA,1.2,NA,NA,NA,custom_main_text2,Your friend says: </br><b>That one is big.</b>
1462,<i>What do you think Speaker A meant? </i>,NA,The Empire State Building is tall relative to other ,Thu Dec 12 2019 12:19:42 GMT-0600 (Central Standard Time),NA,NA,30,NA,NA,NA,No.,2,NA,barbara,1,NA,NA,yes,NA,NA,"<b> Speaker A: ""The Empire State Building is tall.""</b>",33,buildings,I don't have any comments.,NA,NA,NA,some_high_school,NA,comp_class_warmup,English,male,NA,NA,In the main trials you will be asked to rephrase something a person said. The utterance will contain a word that is <i>relative</i> and your task is to figure out what it is relative to. <br /> <br /> For example: <br /><br />,1,1576174782890,1,NA,1.20,NA,NA,"buildings, skyscrapers, houses, constructions (choose one)",comp_class_warmup,NA
1462,NA,small dog,NA,Thu Dec 12 2019 12:19:42 GMT-0600 (Central Standard Time),NA,NA,30,warmup/doberman.png,chihuahua,This is a ,No.,2,dogs,barbara,NA,doberman,NA,yes,Please label the pictures below.,NA,NA,33,NA,I don't have any comments.,NA,warmup/chihuahua.jpg,dogs,some_high_school,NA,NA,English,male,NA,dogs,NA,1,1576174782890,1,This is a ,1.20,These are both,big dog,NA,warmup1,NA
1462,NA,chihuahua,NA,Thu Dec 12 2019 12:19:42 GMT-0600 (Central Standard Time),NA,NA,30,warmup/doberman.png,chihuahua,This is a ,No.,2,dogs,barbara,NA,doberman,NA,yes,Please label the pictures below.,NA,NA,33,NA,I don't have any comments.,NA,warmup/chihuahua.jpg,dogs,some_high_school,NA,NA,English,male,NA,dogs,NA,1,1576174782890,2,This is a ,1.20,These are both,doberman,NA,warmup1,NA
1462,NA,dandelion,NA,Thu Dec 12 2019 12:19:42 GMT-0600 (Central Standard Time),NA,NA,30,warmup/sunflower.png,dandelion,This is a ,No.,2,flowers,barbara,NA,sunflower,NA,yes,Please label the pictures below.,NA,NA,33,NA,I don't have any comments.,NA,warmup/dandelion.jpg,flowers,some_high_school,NA,NA,English,male,NA,flowers,NA,2,1576174782890,1,This is a ,1.20,These are both,sunflower,NA,warmup1,NA
1462,NA,swordfish,NA,Thu Dec 12 2019 12:19:42 GMT-0600 (Central Standard Time),NA,NA,30,warmup/goldfish.png,swordfish,This is a ,No.,2,fish,barbara,NA,goldfish,NA,yes,Please label the pictures below.,NA,NA,33,NA,I don't have any comments.,NA,warmup/swordfish.jpg,fish,some_high_school,NA,NA,English,male,NA,fish,NA,3,1576174782890,1,This is a ,1.20,These are both,goldfish,NA,warmup1,NA
1462,What do you think your friend meant?,NA,It is small  relative to other ,Thu Dec 12 2019 12:19:42 GMT-0600 (Central Standard Time),images/fish-parade-basic.png,images/goldfish.png,30,NA,NA,NA,No.,2,fish,barbara,NA,NA,0,yes,"Your friend runs far ahead of you, and you see him in the distance: ",1,NA,33,fish,I don't have any comments.,2,NA,NA,some_high_school,small,NA,English,male,,NA,You and your friend see the following:,1,1576174782890,NA,NA,1.20,NA,NA,NA,custom_main_text1,Your friend says: </br><b>That one is small.</b>
1462,What do you think your friend meant?,NA,It is big  relative to other ,Thu Dec 12 2019 12:19:42 GMT-0600 (Central Standard Time),images/dog-parade-doberman.png,images/doberman.png,30,NA,NA,NA,No.,2,dogs1,barbara,NA,NA,1,yes,"Your friend runs far ahead of you, and you see him in the distance: ",1,NA,33,dogs,I don't have any comments.,1,NA,NA,some_high_school,big,NA,English,male,,NA,You and your friend see the following:,2,1576174782890,NA,NA,1.20,NA,NA,NA,custom_main_text1,Your friend says: </br><b>That doberman is big.</b>
1462,What do you think your friend meant?,NA,It is big  relative to other ,Thu Dec 12 2019 12:19:42 GMT-0600 (Central Standard Time),images/flower-parade-basic.png,images/sunflower.png,30,NA,NA,NA,No.,2,flowers,barbara,NA,NA,0,yes,"Your friend runs far ahead of you, and you see him in the distance: ",0,NA,33,flowers,I don't have any comments.,0,NA,NA,some_high_school,big,NA,English,male,,NA,You and your friend see the following:,3,1576174782890,NA,NA,1.20,NA,NA,NA,custom_main_text1,Your friend says: </br><b>That's a big flower.</b>
1462,What do you think your friend meant?,NA,It is small  relative to other ,Thu Dec 12 2019 12:19:42 GMT-0600 (Central Standard Time),images/flower-parade-dandelion.png,images/dandelion.png,30,NA,NA,NA,No.,2,flowers,barbara,NA,NA,1,yes,"Your friend runs far ahead of you, and you see him in the distance: ",1,NA,33,dandelions,I don't have any comments.,1,NA,NA,some_high_school,small,NA,English,male,,NA,You and your friend see the following:,4,1576174782890,NA,NA,1.20,NA,NA,NA,custom_main_text1,Your friend says: </br><b>That dandelion is small.</b>
1462,What do you think your friend meant?,NA,It is big  relative to other ,Thu Dec 12 2019 12:19:42 GMT-0600 (Central Standard Time),images/fish-parade-swordfish.png,images/swordfish.png,30,NA,NA,NA,No.,2,fish,barbara,NA,NA,1,yes,"Your friend runs far ahead of you, and you see him in the distance: ",1,NA,33,fish,I don't have any comments.,0,NA,NA,some_high_school,big,NA,English,male,,NA,You and your friend see the following:,5,1576174782890,NA,NA,1.20,NA,NA,NA,custom_main_text1,Your friend says: </br><b>That fish is big.</b>
1462,What do you think your friend meant?,NA,It is small  relative to other ,Thu Dec 12 2019 12:19:42 GMT-0600 (Central Standard Time),images/dog-parade-basic.png,images/chihuahua.png,30,NA,NA,NA,No.,2,dogs1,barbara,NA,NA,0,yes,"Your friend runs far ahead of you, and you see him in the distance: ",0,NA,33,dogs,I don't have any comments.,0,NA,NA,some_high_school,small,NA,English,male,,NA,You and your friend see the following:,6,1576174782890,NA,NA,1.20,NA,NA,NA,custom_main_text1,Your friend says: </br><b>That's a small dog.</b>
1462,NA,redwood tree,NA,Thu Dec 12 2019 12:19:42 GMT-0600 (Central Standard Time),NA,NA,30,warmup/bonsai.jpg,redwood or sequoia (choose one),This is a ,No.,2,trees,barbara,NA,bonsai,NA,yes,Please label the pictures below.,NA,NA,33,NA,I don't have any comments.,NA,warmup/sequoia.png,trees,some_high_school,NA,NA,English,male,NA,trees,NA,1,1576174782890,1,This is a ,1.20,These are both,bonsai tree,NA,warmup2,NA
1462,NA,redwood,NA,Thu Dec 12 2019 12:19:42 GMT-0600 (Central Standard Time),NA,NA,30,warmup/bonsai.jpg,redwood or sequoia (choose one),This is a ,No.,2,trees,barbara,NA,bonsai,NA,yes,Please label the pictures below.,NA,NA,33,NA,I don't have any comments.,NA,warmup/sequoia.png,trees,some_high_school,NA,NA,English,male,NA,trees,NA,1,1576174782890,2,This is a ,1.20,These are both,bonsai,NA,warmup2,NA
1462,NA,bulldog,NA,Thu Dec 12 2019 12:19:42 GMT-0600 (Central Standard Time),NA,NA,30,warmup/great-dane.jpg,pug,This is a ,No.,2,dogs,barbara,NA,great dane,NA,yes,Please label the pictures below.,NA,NA,33,NA,I don't have any comments.,NA,warmup/pug.jpg,dogs,some_high_school,NA,NA,English,male,NA,dogs,NA,2,1576174782890,1,This is a ,1.20,These are both,greyhound,NA,warmup2,NA
1462,NA,pug,NA,Thu Dec 12 2019 12:19:42 GMT-0600 (Central Standard Time),NA,NA,30,warmup/great-dane.jpg,pug,This is a ,No.,2,dogs,barbara,NA,great dane,NA,yes,Please label the pictures below.,NA,NA,33,NA,I don't have any comments.,NA,warmup/pug.jpg,dogs,some_high_school,NA,NA,English,male,NA,dogs,NA,2,1576174782890,2,This is a ,1.20,These are both,great dane,NA,warmup2,NA
1462,NA,hummingbird,NA,Thu Dec 12 2019 12:19:42 GMT-0600 (Central Standard Time),NA,NA,30,warmup/eagle.jpg,hummingbird,This is a ,No.,2,birds,barbara,NA,eagle,NA,yes,Please label the pictures below.,NA,NA,33,NA,I don't have any comments.,NA,warmup/colibri.jpg,birds,some_high_school,NA,NA,English,male,NA,birds,NA,3,1576174782890,1,This is an ,1.20,These are both,eagle,NA,warmup2,NA
1462,What do you think your friend meant?,NA,It is big  relative to other ,Thu Dec 12 2019 12:19:42 GMT-0600 (Central Standard Time),images/tree-parade-redwood.png,images/redwood.png,30,NA,NA,NA,No.,2,trees,barbara,NA,NA,1,yes,"Your friend runs far ahead of you, and you see him in the distance: ",1,NA,33,redwoods,I don't have any comments.,2,NA,NA,some_high_school,big,NA,English,male,,NA,You and your friend see the following:,1,1576174782890,NA,NA,1.20,NA,NA,NA,custom_main_text2,Your friend says: </br><b>That one is big.</b>
1462,What do you think your friend meant?,NA,It is small  relative to other ,Thu Dec 12 2019 12:19:42 GMT-0600 (Central Standard Time),images/tree-parade-basic.png,images/bonsai.png,30,NA,NA,NA,No.,2,trees,barbara,NA,NA,0,yes,"Your friend runs far ahead of you, and you see him in the distance: ",1,NA,33,bonsai,I don't have any comments.,2,NA,NA,some_high_school,small,NA,English,male,,NA,You and your friend see the following:,2,1576174782890,NA,NA,1.20,NA,NA,NA,custom_main_text2,Your friend says: </br><b>That one is small.</b>
1462,What do you think your friend meant?,NA,It is small  relative to other ,Thu Dec 12 2019 12:19:42 GMT-0600 (Central Standard Time),images/bird-parade-basic.png,images/hummingbird.png,30,NA,NA,NA,No.,2,birds,barbara,NA,NA,0,yes,"Your friend runs far ahead of you, and you see him in the distance: ",0,NA,33,hummingbirds,I don't have any comments.,1,NA,NA,some_high_school,small,NA,English,male,,NA,You and your friend see the following:,3,1576174782890,NA,NA,1.20,NA,NA,NA,custom_main_text2,Your friend says: </br><b>That's a small hummingbird.</b>
1462,What do you think your friend meant?,NA,It is big  relative to other ,Thu Dec 12 2019 12:19:42 GMT-0600 (Central Standard Time),images/bird-parade-eagle.png,images/eagle.png,30,NA,NA,NA,No.,2,birds,barbara,NA,NA,1,yes,"Your friend runs far ahead of you, and you see him in the distance: ",0,NA,33,birds,I don't have any comments.,0,NA,NA,some_high_school,big,NA,English,male,,NA,You and your friend see the following:,4,1576174782890,NA,NA,1.20,NA,NA,NA,custom_main_text2,Your friend says: </br><b>That's a big bird.</b>
1462,What do you think your friend meant?,NA,It is small  relative to other ,Thu Dec 12 2019 12:19:42 GMT-0600 (Central Standard Time),images/dog-parade-basic2.png,images/pug.png,30,NA,NA,NA,No.,2,dogs2,barbara,NA,NA,0,yes,"Your friend runs far ahead of you, and you see him in the distance: ",0,NA,33,dogs,I don't have any comments.,1,NA,NA,some_high_school,small,NA,English,male,,NA,You and your friend see the following:,5,1576174782890,NA,NA,1.20,NA,NA,NA,custom_main_text2,Your friend says: </br><b>That's a small one.</b>
1462,What do you think your friend meant?,NA,It is big  relative to other ,Thu Dec 12 2019 12:19:42 GMT-0600 (Central Standard Time),images/dog-parade-great-dane.png,images/great-dane.png,30,NA,NA,NA,No.,2,dogs2,barbara,NA,NA,1,yes,"Your friend runs far ahead of you, and you see him in the distance: ",0,NA,33,great danes,I don't have any comments.,1,NA,NA,some_high_school,big,NA,English,male,,NA,You and your friend see the following:,6,1576174782890,NA,NA,1.20,NA,NA,NA,custom_main_text2,Your friend says: </br><b>That's a big great dane.</b>
1463,<i>What do you think Speaker A meant? </i>,NA,The Empire State Building is tall relative to other ,Thu Dec 12 2019 13:40:53 GMT-0500 (Eastern Standard Time),NA,NA,30,NA,NA,NA,No,2,NA,elizabeth,1,NA,NA,yes,NA,NA,"<b> Speaker A: ""The Empire State Building is tall.""</b>",55,buildings,Thank you!,NA,NA,NA,graduated_college,NA,comp_class_warmup,english,female,NA,NA,In the main trials you will be asked to rephrase something a person said. The utterance will contain a word that is <i>relative</i> and your task is to figure out what it is relative to. <br /> <br /> For example: <br /><br />,1,1576176053723,1,NA,1.20,NA,NA,"buildings, skyscrapers, houses, constructions (choose one)",comp_class_warmup,NA
1463,NA,sequoia,NA,Thu Dec 12 2019 13:40:53 GMT-0500 (Eastern Standard Time),NA,NA,30,warmup/bonsai.jpg,redwood or sequoia (choose one),This is a ,No,2,trees,elizabeth,NA,bonsai,NA,yes,Please label the pictures below.,NA,NA,55,NA,Thank you!,NA,warmup/sequoia.png,trees,graduated_college,NA,NA,english,female,NA,trees,NA,1,1576176053723,1,This is a ,1.20,These are both,bonsai,NA,warmup1,NA
1463,NA,dandelion,NA,Thu Dec 12 2019 13:40:53 GMT-0500 (Eastern Standard Time),NA,NA,30,warmup/sunflower.png,dandelion,This is a ,No,2,flowers,elizabeth,NA,sunflower,NA,yes,Please label the pictures below.,NA,NA,55,NA,Thank you!,NA,warmup/dandelion.jpg,flowers,graduated_college,NA,NA,english,female,NA,flowers,NA,2,1576176053723,1,This is a ,1.20,These are both,sunflower,NA,warmup1,NA
1463,NA,dolphin,NA,Thu Dec 12 2019 13:40:53 GMT-0500 (Eastern Standard Time),NA,NA,30,warmup/goldfish.png,swordfish,This is a ,No,2,fish,elizabeth,NA,goldfish,NA,yes,Please label the pictures below.,NA,NA,55,NA,Thank you!,NA,warmup/swordfish.jpg,fish,graduated_college,NA,NA,english,female,NA,fish,NA,3,1576176053723,1,This is a ,1.20,These are both,goldfish,NA,warmup1,NA
1463,NA,swordfish,NA,Thu Dec 12 2019 13:40:53 GMT-0500 (Eastern Standard Time),NA,NA,30,warmup/goldfish.png,swordfish,This is a ,No,2,fish,elizabeth,NA,goldfish,NA,yes,Please label the pictures below.,NA,NA,55,NA,Thank you!,NA,warmup/swordfish.jpg,fish,graduated_college,NA,NA,english,female,NA,fish,NA,3,1576176053723,2,This is a ,1.20,These are both,goldfish,NA,warmup1,NA
1463,What do you think your friend meant?,NA,It is big  relative to other ,Thu Dec 12 2019 13:40:53 GMT-0500 (Eastern Standard Time),images/flower-parade-sunflower.png,images/sunflower.png,30,NA,NA,NA,No,2,flowers,elizabeth,NA,NA,1,yes,"Your friend runs far ahead of you, and you see him in the distance: ",1,NA,55,sunflowers,Thank you!,1,NA,NA,graduated_college,big,NA,english,female,,NA,You and your friend see the following:,1,1576176053723,NA,NA,1.20,NA,NA,NA,custom_main_text1,Your friend says: </br><b>That sunflower is big.</b>
1463,What do you think your friend meant?,NA,It is big  relative to other ,Thu Dec 12 2019 13:40:53 GMT-0500 (Eastern Standard Time),images/fish-parade-swordfish.png,images/swordfish.png,30,NA,NA,NA,No,2,fish,elizabeth,NA,NA,1,yes,"Your friend runs far ahead of you, and you see him in the distance: ",0,NA,55,fish,Thank you!,2,NA,NA,graduated_college,big,NA,english,female,,NA,You and your friend see the following:,2,1576176053723,NA,NA,1.20,NA,NA,NA,custom_main_text1,Your friend says: </br><b>That's a big one.</b>
1463,What do you think your friend meant?,NA,It is small  relative to other ,Thu Dec 12 2019 13:40:53 GMT-0500 (Eastern Standard Time),images/fish-parade-basic.png,images/goldfish.png,30,NA,NA,NA,No,2,fish,elizabeth,NA,NA,0,yes,"Your friend runs far ahead of you, and you see him in the distance: ",1,NA,55,goldfish,Thank you!,1,NA,NA,graduated_college,small,NA,english,female,,NA,You and your friend see the following:,3,1576176053723,NA,NA,1.20,NA,NA,NA,custom_main_text1,Your friend says: </br><b>That goldfish is small.</b>
1463,What do you think your friend meant?,NA,It is big  relative to other ,Thu Dec 12 2019 13:40:53 GMT-0500 (Eastern Standard Time),images/tree-parade-redwood.png,images/redwood.png,30,NA,NA,NA,No,2,trees,elizabeth,NA,NA,1,yes,"Your friend runs far ahead of you, and you see him in the distance: ",0,NA,55,sequoias,Thank you!,2,NA,NA,graduated_college,big,NA,english,female,,NA,You and your friend see the following:,4,1576176053723,NA,NA,1.20,NA,NA,NA,custom_main_text1,Your friend says: </br><b>That's a big one.</b>
1463,What do you think your friend meant?,NA,It is small  relative to other ,Thu Dec 12 2019 13:40:53 GMT-0500 (Eastern Standard Time),images/tree-parade-basic.png,images/bonsai.png,30,NA,NA,NA,No,2,trees,elizabeth,NA,NA,0,yes,"Your friend runs far ahead of you, and you see him in the distance: ",0,NA,55,trees,Thank you!,0,NA,NA,graduated_college,small,NA,english,female,,NA,You and your friend see the following:,5,1576176053723,NA,NA,1.20,NA,NA,NA,custom_main_text1,Your friend says: </br><b>That's a small tree.</b>
1463,What do you think your friend meant?,NA,It is small  relative to other ,Thu Dec 12 2019 13:40:53 GMT-0500 (Eastern Standard Time),images/flower-parade-basic.png,images/dandelion.png,30,NA,NA,NA,No,2,flowers,elizabeth,NA,NA,0,yes,"Your friend runs far ahead of you, and you see him in the distance: ",0,NA,55,dandelions,Thank you!,1,NA,NA,graduated_college,small,NA,english,female,,NA,You and your friend see the following:,6,1576176053723,NA,NA,1.20,NA,NA,NA,custom_main_text1,Your friend says: </br><b>That's a small dandelion.</b>
1463,NA,hummingbird,NA,Thu Dec 12 2019 13:40:53 GMT-0500 (Eastern Standard Time),NA,NA,30,warmup/eagle.jpg,hummingbird,This is a ,No,2,birds,elizabeth,NA,eagle,NA,yes,Please label the pictures below.,NA,NA,55,NA,Thank you!,NA,warmup/colibri.jpg,birds,graduated_college,NA,NA,english,female,NA,birds,NA,1,1576176053723,1,This is an ,1.20,These are both,eagle,NA,warmup2,NA
1463,NA,pug,NA,Thu Dec 12 2019 13:40:53 GMT-0500 (Eastern Standard Time),NA,NA,30,warmup/great-dane.jpg,pug,This is a ,No,2,dogs,elizabeth,NA,great dane,NA,yes,Please label the pictures below.,NA,NA,55,NA,Thank you!,NA,warmup/pug.jpg,dogs,graduated_college,NA,NA,english,female,NA,dogs,NA,2,1576176053723,1,This is a ,1.20,These are both,great dane,NA,warmup2,NA
1463,NA,chihuahua,NA,Thu Dec 12 2019 13:40:53 GMT-0500 (Eastern Standard Time),NA,NA,30,warmup/doberman.png,chihuahua,This is a ,No,2,dogs,elizabeth,NA,doberman,NA,yes,Please label the pictures below.,NA,NA,55,NA,Thank you!,NA,warmup/chihuahua.jpg,dogs,graduated_college,NA,NA,english,female,NA,dogs,NA,3,1576176053723,1,This is a ,1.20,These are both,doberman,NA,warmup2,NA
1463,What do you think your friend meant?,NA,It is small  relative to other ,Thu Dec 12 2019 13:40:53 GMT-0500 (Eastern Standard Time),images/bird-parade-basic.png,images/hummingbird.png,30,NA,NA,NA,No,2,birds,elizabeth,NA,NA,0,yes,"Your friend runs far ahead of you, and you see him in the distance: ",0,NA,55,birds,Thank you!,0,NA,NA,graduated_college,small,NA,english,female,,NA,You and your friend see the following:,1,1576176053723,NA,NA,1.20,NA,NA,NA,custom_main_text2,Your friend says: </br><b>That's a small bird.</b>
1463,What do you think your friend meant?,NA,It is small  relative to other ,Thu Dec 12 2019 13:40:53 GMT-0500 (Eastern Standard Time),images/dog-parade-basic2.png,images/pug.png,30,NA,NA,NA,No,2,dogs2,elizabeth,NA,NA,0,yes,"Your friend runs far ahead of you, and you see him in the distance: ",1,NA,55,dogs,Thank you!,2,NA,NA,graduated_college,small,NA,english,female,,NA,You and your friend see the following:,2,1576176053723,NA,NA,1.20,NA,NA,NA,custom_main_text2,Your friend says: </br><b>That pug is small.</b>
1463,What do you think your friend meant?,NA,It is big  relative to other ,Thu Dec 12 2019 13:40:53 GMT-0500 (Eastern Standard Time),images/dog-parade-doberman.png,images/doberman.png,30,NA,NA,NA,No,2,dogs1,elizabeth,NA,NA,1,yes,"Your friend runs far ahead of you, and you see him in the distance: ",0,NA,55,dogs,Thank you!,0,NA,NA,graduated_college,big,NA,english,female,,NA,You and your friend see the following:,3,1576176053723,NA,NA,1.20,NA,NA,NA,custom_main_text2,Your friend says: </br><b>That's a big dog.</b>
1463,What do you think your friend meant?,NA,It is big  relative to other ,Thu Dec 12 2019 13:40:53 GMT-0500 (Eastern Standard Time),images/dog-parade-great-dane.png,images/great-dane.png,30,NA,NA,NA,No,2,dogs2,elizabeth,NA,NA,1,yes,"Your friend runs far ahead of you, and you see him in the distance: ",1,NA,55,dogs,Thank you!,2,NA,NA,graduated_college,big,NA,english,female,,NA,You and your friend see the following:,4,1576176053723,NA,NA,1.20,NA,NA,NA,custom_main_text2,Your friend says: </br><b>That one is big.</b>
1463,What do you think your friend meant?,NA,It is small  relative to other ,Thu Dec 12 2019 13:40:53 GMT-0500 (Eastern Standard Time),images/dog-parade-basic.png,images/chihuahua.png,30,NA,NA,NA,No,2,dogs1,elizabeth,NA,NA,0,yes,"Your friend runs far ahead of you, and you see him in the distance: ",1,NA,55,dogs,Thank you!,2,NA,NA,graduated_college,small,NA,english,female,,NA,You and your friend see the following:,5,1576176053723,NA,NA,1.20,NA,NA,NA,custom_main_text2,Your friend says: </br><b>That one is small.</b>
1463,What do you think your friend meant?,NA,It is big  relative to other ,Thu Dec 12 2019 13:40:53 GMT-0500 (Eastern Standard Time),images/bird-parade-eagle.png,images/eagle.png,30,NA,NA,NA,No,2,birds,elizabeth,NA,NA,1,yes,"Your friend runs far ahead of you, and you see him in the distance: ",1,NA,55,birds,Thank you!,0,NA,NA,graduated_college,big,NA,english,female,,NA,You and your friend see the following:,6,1576176053723,NA,NA,1.20,NA,NA,NA,custom_main_text2,Your friend says: </br><b>That bird is big.</b>
1471,<i>What do you think Speaker A meant? </i>,NA,The Empire State Building is tall relative to other ,Thu Dec 12 2019 08:46:19 GMT-1000 (Hawaii-Aleutian Standard Time),NA,NA,30,NA,NA,NA,no,2,NA,jessica,1,NA,NA,yes,NA,NA,"<b> Speaker A: ""The Empire State Building is tall.""</b>",34,buildings,,NA,NA,NA,graduated_college,NA,comp_class_warmup,english,female,NA,NA,In the main trials you will be asked to rephrase something a person said. The utterance will contain a word that is <i>relative</i> and your task is to figure out what it is relative to. <br /> <br /> For example: <br /><br />,1,1576176379279,1,NA,1.20,NA,NA,"buildings, skyscrapers, houses, constructions (choose one)",comp_class_warmup,NA
1471,NA,chihuahua,NA,Thu Dec 12 2019 08:46:19 GMT-1000 (Hawaii-Aleutian Standard Time),NA,NA,30,warmup/doberman.png,chihuahua,This is a ,no,2,dogs,jessica,NA,doberman,NA,yes,Please label the pictures below.,NA,NA,34,NA,,NA,warmup/chihuahua.jpg,dogs,graduated_college,NA,NA,english,female,NA,dogs,NA,1,1576176379279,1,This is a ,1.20,These are both,doberman,NA,warmup1,NA
1471,NA,hummingbird,NA,Thu Dec 12 2019 08:46:19 GMT-1000 (Hawaii-Aleutian Standard Time),NA,NA,30,warmup/eagle.jpg,hummingbird,This is a ,no,2,birds,jessica,NA,eagle,NA,yes,Please label the pictures below.,NA,NA,34,NA,,NA,warmup/colibri.jpg,birds,graduated_college,NA,NA,english,female,NA,birds,NA,2,1576176379279,1,This is an ,1.20,These are both,eagle,NA,warmup1,NA
1471,NA,dandelion,NA,Thu Dec 12 2019 08:46:19 GMT-1000 (Hawaii-Aleutian Standard Time),NA,NA,30,warmup/sunflower.png,dandelion,This is a ,no,2,flowers,jessica,NA,sunflower,NA,yes,Please label the pictures below.,NA,NA,34,NA,,NA,warmup/dandelion.jpg,flowers,graduated_college,NA,NA,english,female,NA,flowers,NA,3,1576176379279,1,This is a ,1.20,These are both,sunflower,NA,warmup1,NA
1471,What do you think your friend meant?,NA,It is big  relative to other ,Thu Dec 12 2019 08:46:19 GMT-1000 (Hawaii-Aleutian Standard Time),images/bird-parade-basic.png,images/eagle.png,30,NA,NA,NA,no,2,birds,jessica,NA,NA,0,yes,"Your friend runs far ahead of you, and you see him in the distance: ",1,NA,34,bird,,0,NA,NA,graduated_college,big,NA,english,female,,NA,You and your friend see the following:,1,1576176379279,NA,NA,1.20,NA,NA,NA,custom_main_text1,Your friend says: </br><b>That bird is big.</b>
1471,What do you think your friend meant?,NA,It is big  relative to other ,Thu Dec 12 2019 08:46:19 GMT-1000 (Hawaii-Aleutian Standard Time),images/dog-parade-doberman.png,images/doberman.png,30,NA,NA,NA,no,2,dogs1,jessica,NA,NA,1,yes,"Your friend runs far ahead of you, and you see him in the distance: ",1,NA,34,dobermans,,2,NA,NA,graduated_college,big,NA,english,female,,NA,You and your friend see the following:,2,1576176379279,NA,NA,1.20,NA,NA,NA,custom_main_text1,Your friend says: </br><b>That one is big.</b>
1471,What do you think your friend meant?,NA,It is small  relative to other ,Thu Dec 12 2019 08:46:19 GMT-1000 (Hawaii-Aleutian Standard Time),images/dog-parade-basic.png,images/chihuahua.png,30,NA,NA,NA,no,2,dogs1,jessica,NA,NA,0,yes,"Your friend runs far ahead of you, and you see him in the distance: ",0,NA,34,chihuahuas,,1,NA,NA,graduated_college,small,NA,english,female,,NA,You and your friend see the following:,3,1576176379279,NA,NA,1.20,NA,NA,NA,custom_main_text1,Your friend says: </br><b>That's a small chihuahua.</b>
1471,What do you think your friend meant?,NA,It is small  relative to other ,Thu Dec 12 2019 08:46:19 GMT-1000 (Hawaii-Aleutian Standard Time),images/flower-parade-dandelion.png,images/dandelion.png,30,NA,NA,NA,no,2,flowers,jessica,NA,NA,1,yes,"Your friend runs far ahead of you, and you see him in the distance: ",1,NA,34,dandelions,,0,NA,NA,graduated_college,small,NA,english,female,,NA,You and your friend see the following:,4,1576176379279,NA,NA,1.20,NA,NA,NA,custom_main_text1,Your friend says: </br><b>That flower is small.</b>
1471,What do you think your friend meant?,NA,It is small  relative to other ,Thu Dec 12 2019 08:46:19 GMT-1000 (Hawaii-Aleutian Standard Time),images/bird-parade-hummingbird.png,images/hummingbird.png,30,NA,NA,NA,no,2,birds,jessica,NA,NA,1,yes,"Your friend runs far ahead of you, and you see him in the distance: ",1,NA,34,humingbirds,,0,NA,NA,graduated_college,small,NA,english,female,,NA,You and your friend see the following:,5,1576176379279,NA,NA,1.20,NA,NA,NA,custom_main_text1,Your friend says: </br><b>That bird is small.</b>
1471,What do you think your friend meant?,NA,It is big  relative to other ,Thu Dec 12 2019 08:46:19 GMT-1000 (Hawaii-Aleutian Standard Time),images/flower-parade-basic.png,images/sunflower.png,30,NA,NA,NA,no,2,flowers,jessica,NA,NA,0,yes,"Your friend runs far ahead of you, and you see him in the distance: ",1,NA,34,flowers,,2,NA,NA,graduated_college,big,NA,english,female,,NA,You and your friend see the following:,6,1576176379279,NA,NA,1.20,NA,NA,NA,custom_main_text1,Your friend says: </br><b>That one is big.</b>
1471,NA,pug,NA,Thu Dec 12 2019 08:46:19 GMT-1000 (Hawaii-Aleutian Standard Time),NA,NA,30,warmup/great-dane.jpg,pug,This is a ,no,2,dogs,jessica,NA,great dane,NA,yes,Please label the pictures below.,NA,NA,34,NA,,NA,warmup/pug.jpg,dogs,graduated_college,NA,NA,english,female,NA,dogs,NA,1,1576176379279,1,This is a ,1.20,These are both,weinmarner,NA,warmup2,NA
1471,NA,pug,NA,Thu Dec 12 2019 08:46:19 GMT-1000 (Hawaii-Aleutian Standard Time),NA,NA,30,warmup/great-dane.jpg,pug,This is a ,no,2,dogs,jessica,NA,great dane,NA,yes,Please label the pictures below.,NA,NA,34,NA,,NA,warmup/pug.jpg,dogs,graduated_college,NA,NA,english,female,NA,dogs,NA,1,1576176379279,2,This is a ,1.20,These are both,weinmarner,NA,warmup2,NA
1471,NA,pug,NA,Thu Dec 12 2019 08:46:19 GMT-1000 (Hawaii-Aleutian Standard Time),NA,NA,30,warmup/great-dane.jpg,pug,This is a ,no,2,dogs,jessica,NA,great dane,NA,yes,Please label the pictures below.,NA,NA,34,NA,,NA,warmup/pug.jpg,dogs,graduated_college,NA,NA,english,female,NA,dogs,NA,1,1576176379279,3,This is a ,1.20,These are both,great dane,NA,warmup2,NA
1471,NA,oak,NA,Thu Dec 12 2019 08:46:19 GMT-1000 (Hawaii-Aleutian Standard Time),NA,NA,30,warmup/bonsai.jpg,redwood or sequoia (choose one),This is a ,no,2,trees,jessica,NA,bonsai,NA,yes,Please label the pictures below.,NA,NA,34,NA,,NA,warmup/sequoia.png,trees,graduated_college,NA,NA,english,female,NA,trees,NA,2,1576176379279,1,This is a ,1.20,These are both,bonsai,NA,warmup2,NA
1471,NA,sequoia,NA,Thu Dec 12 2019 08:46:19 GMT-1000 (Hawaii-Aleutian Standard Time),NA,NA,30,warmup/bonsai.jpg,redwood or sequoia (choose one),This is a ,no,2,trees,jessica,NA,bonsai,NA,yes,Please label the pictures below.,NA,NA,34,NA,,NA,warmup/sequoia.png,trees,graduated_college,NA,NA,english,female,NA,trees,NA,2,1576176379279,2,This is a ,1.20,These are both,bonsai,NA,warmup2,NA
1471,NA,tuna,NA,Thu Dec 12 2019 08:46:19 GMT-1000 (Hawaii-Aleutian Standard Time),NA,NA,30,warmup/goldfish.png,swordfish,This is a ,no,2,fish,jessica,NA,goldfish,NA,yes,Please label the pictures below.,NA,NA,34,NA,,NA,warmup/swordfish.jpg,fish,graduated_college,NA,NA,english,female,NA,fish,NA,3,1576176379279,1,This is a ,1.20,These are both,goldfish,NA,warmup2,NA
1471,NA,swordfish,NA,Thu Dec 12 2019 08:46:19 GMT-1000 (Hawaii-Aleutian Standard Time),NA,NA,30,warmup/goldfish.png,swordfish,This is a ,no,2,fish,jessica,NA,goldfish,NA,yes,Please label the pictures below.,NA,NA,34,NA,,NA,warmup/swordfish.jpg,fish,graduated_college,NA,NA,english,female,NA,fish,NA,3,1576176379279,2,This is a ,1.20,These are both,goldfish,NA,warmup2,NA
1471,What do you think your friend meant?,NA,It is big  relative to other ,Thu Dec 12 2019 08:46:19 GMT-1000 (Hawaii-Aleutian Standard Time),images/fish-parade-basic.png,images/swordfish.png,30,NA,NA,NA,no,2,fish,jessica,NA,NA,0,yes,"Your friend runs far ahead of you, and you see him in the distance: ",0,NA,34,fish,,2,NA,NA,graduated_college,big,NA,english,female,,NA,You and your friend see the following:,1,1576176379279,NA,NA,1.20,NA,NA,NA,custom_main_text2,Your friend says: </br><b>That's a big one.</b>
1471,What do you think your friend meant?,NA,It is big  relative to other ,Thu Dec 12 2019 08:46:19 GMT-1000 (Hawaii-Aleutian Standard Time),images/dog-parade-great-dane.png,images/great-dane.png,30,NA,NA,NA,no,2,dogs2,jessica,NA,NA,1,yes,"Your friend runs far ahead of you, and you see him in the distance: ",0,NA,34,large dogs,,2,NA,NA,graduated_college,big,NA,english,female,,NA,You and your friend see the following:,2,1576176379279,NA,NA,1.20,NA,NA,NA,custom_main_text2,Your friend says: </br><b>That's a big one.</b>
1471,What do you think your friend meant?,NA,It is small  relative to other ,Thu Dec 12 2019 08:46:19 GMT-1000 (Hawaii-Aleutian Standard Time),images/fish-parade-goldfish.png,images/goldfish.png,30,NA,NA,NA,no,2,fish,jessica,NA,NA,1,yes,"Your friend runs far ahead of you, and you see him in the distance: ",0,NA,34,goldfish,,0,NA,NA,graduated_college,small,NA,english,female,,NA,You and your friend see the following:,3,1576176379279,NA,NA,1.20,NA,NA,NA,custom_main_text2,Your friend says: </br><b>That's a small fish.</b>
1471,What do you think your friend meant?,NA,It is big  relative to other ,Thu Dec 12 2019 08:46:19 GMT-1000 (Hawaii-Aleutian Standard Time),images/tree-parade-redwood.png,images/redwood.png,30,NA,NA,NA,no,2,trees,jessica,NA,NA,1,yes,"Your friend runs far ahead of you, and you see him in the distance: ",1,NA,34,giant trees,,1,NA,NA,graduated_college,big,NA,english,female,,NA,You and your friend see the following:,4,1576176379279,NA,NA,1.20,NA,NA,NA,custom_main_text2,Your friend says: </br><b>That redwood is big.</b>
1471,What do you think your friend meant?,NA,It is small  relative to other ,Thu Dec 12 2019 08:46:19 GMT-1000 (Hawaii-Aleutian Standard Time),images/tree-parade-basic.png,images/bonsai.png,30,NA,NA,NA,no,2,trees,jessica,NA,NA,0,yes,"Your friend runs far ahead of you, and you see him in the distance: ",0,NA,34,trees,,1,NA,NA,graduated_college,small,NA,english,female,,NA,You and your friend see the following:,5,1576176379279,NA,NA,1.20,NA,NA,NA,custom_main_text2,Your friend says: </br><b>That's a small bonsai.</b>
1471,What do you think your friend meant?,NA,It is small  relative to other ,Thu Dec 12 2019 08:46:19 GMT-1000 (Hawaii-Aleutian Standard Time),images/dog-parade-basic2.png,images/pug.png,30,NA,NA,NA,no,2,dogs2,jessica,NA,NA,0,yes,"Your friend runs far ahead of you, and you see him in the distance: ",0,NA,34,dogs,,2,NA,NA,graduated_college,small,NA,english,female,,NA,You and your friend see the following:,6,1576176379279,NA,NA,1.20,NA,NA,NA,custom_main_text2,Your friend says: </br><b>That's a small pug.</b>
1527,<i>What do you think Speaker A meant? </i>,NA,The Empire State Building is tall relative to other ,Fri Dec 13 2019 07:30:47 GMT-0600 (Central Standard Time),NA,NA,30,NA,NA,NA,no,2,NA,elizabeth,1,NA,NA,,NA,NA,"<b> Speaker A: ""The Empire State Building is tall.""</b>",29,buildings,,NA,NA,NA,graduated_college,NA,comp_class_warmup,English,male,NA,NA,In the main trials you will be asked to rephrase something a person said. The utterance will contain a word that is <i>relative</i> and your task is to figure out what it is relative to. <br /> <br /> For example: <br /><br />,1,1576243847969,1,NA,1.20,NA,NA,"buildings, skyscrapers, houses, constructions (choose one)",comp_class_warmup,NA
1527,NA,redwood,NA,Fri Dec 13 2019 07:30:47 GMT-0600 (Central Standard Time),NA,NA,30,warmup/bonsai.jpg,redwood or sequoia (choose one),This is a ,no,2,trees,elizabeth,NA,bonsai,NA,,Please label the pictures below.,NA,NA,29,NA,,NA,warmup/sequoia.png,trees,graduated_college,NA,NA,English,male,NA,trees,NA,1,1576243847969,1,This is a ,1.20,These are both,bonsai,NA,warmup1,NA
1527,NA,chihuahua,NA,Fri Dec 13 2019 07:30:47 GMT-0600 (Central Standard Time),NA,NA,30,warmup/doberman.png,chihuahua,This is a ,no,2,dogs,elizabeth,NA,doberman,NA,,Please label the pictures below.,NA,NA,29,NA,,NA,warmup/chihuahua.jpg,dogs,graduated_college,NA,NA,English,male,NA,dogs,NA,2,1576243847969,1,This is a ,1.20,These are both,doberman,NA,warmup1,NA
1527,NA,dandelion,NA,Fri Dec 13 2019 07:30:47 GMT-0600 (Central Standard Time),NA,NA,30,warmup/sunflower.png,dandelion,This is a ,no,2,flowers,elizabeth,NA,sunflower,NA,,Please label the pictures below.,NA,NA,29,NA,,NA,warmup/dandelion.jpg,flowers,graduated_college,NA,NA,English,male,NA,flowers,NA,3,1576243847969,1,This is a ,1.20,These are both,sunflower,NA,warmup1,NA
1527,What do you think your friend meant?,NA,It is big  relative to other ,Fri Dec 13 2019 07:30:47 GMT-0600 (Central Standard Time),images/dog-parade-doberman.png,images/doberman.png,30,NA,NA,NA,no,2,dogs1,elizabeth,NA,NA,1,,"Your friend runs far ahead of you, and you see him in the distance: ",0,NA,29,doberman,,1,NA,NA,graduated_college,big,NA,English,male,,NA,You and your friend see the following:,1,1576243847969,NA,NA,1.20,NA,NA,NA,custom_main_text1,Your friend says: </br><b>That's a big doberman.</b>
1527,What do you think your friend meant?,NA,It is big  relative to other ,Fri Dec 13 2019 07:30:47 GMT-0600 (Central Standard Time),images/flower-parade-sunflower.png,images/sunflower.png,30,NA,NA,NA,no,2,flowers,elizabeth,NA,NA,1,,"Your friend runs far ahead of you, and you see him in the distance: ",1,NA,29,flowers,,0,NA,NA,graduated_college,big,NA,English,male,,NA,You and your friend see the following:,2,1576243847969,NA,NA,1.20,NA,NA,NA,custom_main_text1,Your friend says: </br><b>That flower is big.</b>
1527,What do you think your friend meant?,NA,It is small  relative to other ,Fri Dec 13 2019 07:30:47 GMT-0600 (Central Standard Time),images/tree-parade-basic.png,images/bonsai.png,30,NA,NA,NA,no,2,trees,elizabeth,NA,NA,0,,"Your friend runs far ahead of you, and you see him in the distance: ",1,NA,29,trees,,2,NA,NA,graduated_college,small,NA,English,male,,NA,You and your friend see the following:,3,1576243847969,NA,NA,1.20,NA,NA,NA,custom_main_text1,Your friend says: </br><b>That one is small.</b>
1527,What do you think your friend meant?,NA,It is small  relative to other ,Fri Dec 13 2019 07:30:47 GMT-0600 (Central Standard Time),images/dog-parade-basic.png,images/chihuahua.png,30,NA,NA,NA,no,2,dogs1,elizabeth,NA,NA,0,,"Your friend runs far ahead of you, and you see him in the distance: ",1,NA,29,dogs,,0,NA,NA,graduated_college,small,NA,English,male,,NA,You and your friend see the following:,4,1576243847969,NA,NA,1.20,NA,NA,NA,custom_main_text1,Your friend says: </br><b>That dog is small.</b>
1527,What do you think your friend meant?,NA,It is small  relative to other ,Fri Dec 13 2019 07:30:47 GMT-0600 (Central Standard Time),images/flower-parade-basic.png,images/dandelion.png,30,NA,NA,NA,no,2,flowers,elizabeth,NA,NA,0,,"Your friend runs far ahead of you, and you see him in the distance: ",0,NA,29,dandelions,,1,NA,NA,graduated_college,small,NA,English,male,,NA,You and your friend see the following:,5,1576243847969,NA,NA,1.20,NA,NA,NA,custom_main_text1,Your friend says: </br><b>That's a small dandelion.</b>
1527,What do you think your friend meant?,NA,It is big  relative to other ,Fri Dec 13 2019 07:30:47 GMT-0600 (Central Standard Time),images/tree-parade-redwood.png,images/redwood.png,30,NA,NA,NA,no,2,trees,elizabeth,NA,NA,1,,"Your friend runs far ahead of you, and you see him in the distance: ",1,NA,29,trees,,0,NA,NA,graduated_college,big,NA,English,male,,NA,You and your friend see the following:,6,1576243847969,NA,NA,1.20,NA,NA,NA,custom_main_text1,Your friend says: </br><b>That tree is big.</b>
1527,NA,pug,NA,Fri Dec 13 2019 07:30:47 GMT-0600 (Central Standard Time),NA,NA,30,warmup/great-dane.jpg,pug,This is a ,no,2,dogs,elizabeth,NA,great dane,NA,,Please label the pictures below.,NA,NA,29,NA,,NA,warmup/pug.jpg,dogs,graduated_college,NA,NA,English,male,NA,dogs,NA,1,1576243847969,1,This is a ,1.20,These are both,great dane,NA,warmup2,NA
1527,NA,swordfish,NA,Fri Dec 13 2019 07:30:47 GMT-0600 (Central Standard Time),NA,NA,30,warmup/goldfish.png,swordfish,This is a ,no,2,fish,elizabeth,NA,goldfish,NA,,Please label the pictures below.,NA,NA,29,NA,,NA,warmup/swordfish.jpg,fish,graduated_college,NA,NA,English,male,NA,fish,NA,2,1576243847969,1,This is a ,1.20,These are both,goldfish,NA,warmup2,NA
1527,NA,hummingbird,NA,Fri Dec 13 2019 07:30:47 GMT-0600 (Central Standard Time),NA,NA,30,warmup/eagle.jpg,hummingbird,This is a ,no,2,birds,elizabeth,NA,eagle,NA,,Please label the pictures below.,NA,NA,29,NA,,NA,warmup/colibri.jpg,birds,graduated_college,NA,NA,English,male,NA,birds,NA,3,1576243847969,1,This is an ,1.20,These are both,eagle,NA,warmup2,NA
1527,What do you think your friend meant?,NA,It is big  relative to other ,Fri Dec 13 2019 07:30:47 GMT-0600 (Central Standard Time),images/dog-parade-basic2.png,images/great-dane.png,30,NA,NA,NA,no,2,dogs2,elizabeth,NA,NA,0,,"Your friend runs far ahead of you, and you see him in the distance: ",0,NA,29,dogs,,2,NA,NA,graduated_college,big,NA,English,male,,NA,You and your friend see the following:,1,1576243847969,NA,NA,1.20,NA,NA,NA,custom_main_text2,Your friend says: </br><b>That's a big one.</b>
1527,What do you think your friend meant?,NA,It is big  relative to other ,Fri Dec 13 2019 07:30:47 GMT-0600 (Central Standard Time),images/bird-parade-basic.png,images/eagle.png,30,NA,NA,NA,no,2,birds,elizabeth,NA,NA,0,,"Your friend runs far ahead of you, and you see him in the distance: ",0,NA,29,birds,,1,NA,NA,graduated_college,big,NA,English,male,,NA,You and your friend see the following:,2,1576243847969,NA,NA,1.20,NA,NA,NA,custom_main_text2,Your friend says: </br><b>That's a big eagle.</b>
1527,What do you think your friend meant?,NA,It is small  relative to other ,Fri Dec 13 2019 07:30:47 GMT-0600 (Central Standard Time),images/fish-parade-goldfish.png,images/goldfish.png,30,NA,NA,NA,no,2,fish,elizabeth,NA,NA,1,,"Your friend runs far ahead of you, and you see him in the distance: ",1,NA,29,goldfish,,1,NA,NA,graduated_college,small,NA,English,male,,NA,You and your friend see the following:,3,1576243847969,NA,NA,1.20,NA,NA,NA,custom_main_text2,Your friend says: </br><b>That goldfish is small.</b>
1527,What do you think your friend meant?,NA,It is big  relative to other ,Fri Dec 13 2019 07:30:47 GMT-0600 (Central Standard Time),images/fish-parade-basic.png,images/swordfish.png,30,NA,NA,NA,no,2,fish,elizabeth,NA,NA,0,,"Your friend runs far ahead of you, and you see him in the distance: ",0,NA,29,fish,,0,NA,NA,graduated_college,big,NA,English,male,,NA,You and your friend see the following:,4,1576243847969,NA,NA,1.20,NA,NA,NA,custom_main_text2,Your friend says: </br><b>That's a big fish.</b>
1527,What do you think your friend meant?,NA,It is small  relative to other ,Fri Dec 13 2019 07:30:47 GMT-0600 (Central Standard Time),images/bird-parade-hummingbird.png,images/hummingbird.png,30,NA,NA,NA,no,2,birds,elizabeth,NA,NA,1,,"Your friend runs far ahead of you, and you see him in the distance: ",0,NA,29,hummingbirds,,2,NA,NA,graduated_college,small,NA,English,male,,NA,You and your friend see the following:,5,1576243847969,NA,NA,1.20,NA,NA,NA,custom_main_text2,Your friend says: </br><b>That's a small one.</b>
1527,What do you think your friend meant?,NA,It is small  relative to other ,Fri Dec 13 2019 07:30:47 GMT-0600 (Central Standard Time),images/dog-parade-pug.png,images/pug.png,30,NA,NA,NA,no,2,dogs2,elizabeth,NA,NA,1,,"Your friend runs far ahead of you, and you see him in the distance: ",1,NA,29,pugs,,2,NA,NA,graduated_college,small,NA,English,male,,NA,You and your friend see the following:,6,1576243847969,NA,NA,1.20,NA,NA,NA,custom_main_text2,Your friend says: </br><b>That one is small.</b>
1531,<i>What do you think Speaker A meant? </i>,NA,The Empire State Building is tall relative to other ,Fri Dec 13 2019 08:28:28 GMT-0500 (Eastern Standard Time),NA,NA,30,NA,NA,NA,no,,NA,susan,1,NA,NA,,NA,NA,"<b> Speaker A: ""The Empire State Building is tall.""</b>",,buildings,Thank you for an interesting exercise,NA,NA,NA,,NA,comp_class_warmup,,,NA,NA,In the main trials you will be asked to rephrase something a person said. The utterance will contain a word that is <i>relative</i> and your task is to figure out what it is relative to. <br /> <br /> For example: <br /><br />,1,1576243708737,1,NA,1.20,NA,NA,"buildings, skyscrapers, houses, constructions (choose one)",comp_class_warmup,NA
1531,NA,dog,NA,Fri Dec 13 2019 08:28:28 GMT-0500 (Eastern Standard Time),NA,NA,30,warmup/great-dane.jpg,pug,This is a ,no,,dogs,susan,NA,great dane,NA,,Please label the pictures below.,NA,NA,,NA,Thank you for an interesting exercise,NA,warmup/pug.jpg,dogs,,NA,NA,,,NA,dogs,NA,1,1576243708737,1,This is a ,1.20,These are both,dog,NA,warmup1,NA
1531,NA,pug,NA,Fri Dec 13 2019 08:28:28 GMT-0500 (Eastern Standard Time),NA,NA,30,warmup/great-dane.jpg,pug,This is a ,no,,dogs,susan,NA,great dane,NA,,Please label the pictures below.,NA,NA,,NA,Thank you for an interesting exercise,NA,warmup/pug.jpg,dogs,,NA,NA,,,NA,dogs,NA,1,1576243708737,2,This is a ,1.20,These are both,great dane,NA,warmup1,NA
1531,NA,canary,NA,Fri Dec 13 2019 08:28:28 GMT-0500 (Eastern Standard Time),NA,NA,30,warmup/eagle.jpg,hummingbird,This is a ,no,,birds,susan,NA,eagle,NA,,Please label the pictures below.,NA,NA,,NA,Thank you for an interesting exercise,NA,warmup/colibri.jpg,birds,,NA,NA,,,NA,birds,NA,2,1576243708737,1,This is an ,1.20,These are both,eagle,NA,warmup1,NA
1531,NA,hummingbird,NA,Fri Dec 13 2019 08:28:28 GMT-0500 (Eastern Standard Time),NA,NA,30,warmup/eagle.jpg,hummingbird,This is a ,no,,birds,susan,NA,eagle,NA,,Please label the pictures below.,NA,NA,,NA,Thank you for an interesting exercise,NA,warmup/colibri.jpg,birds,,NA,NA,,,NA,birds,NA,2,1576243708737,2,This is an ,1.20,These are both,eagle,NA,warmup1,NA
1531,NA,dadelion,NA,Fri Dec 13 2019 08:28:28 GMT-0500 (Eastern Standard Time),NA,NA,30,warmup/sunflower.png,dandelion,This is a ,no,,flowers,susan,NA,sunflower,NA,,Please label the pictures below.,NA,NA,,NA,Thank you for an interesting exercise,NA,warmup/dandelion.jpg,flowers,,NA,NA,,,NA,flowers,NA,3,1576243708737,1,This is a ,1.20,These are both,sunflower,NA,warmup1,NA
1531,NA,dandelion,NA,Fri Dec 13 2019 08:28:28 GMT-0500 (Eastern Standard Time),NA,NA,30,warmup/sunflower.png,dandelion,This is a ,no,,flowers,susan,NA,sunflower,NA,,Please label the pictures below.,NA,NA,,NA,Thank you for an interesting exercise,NA,warmup/dandelion.jpg,flowers,,NA,NA,,,NA,flowers,NA,3,1576243708737,2,This is a ,1.20,These are both,sunflower,NA,warmup1,NA
1531,What do you think your friend meant?,NA,It is big  relative to other ,Fri Dec 13 2019 08:28:28 GMT-0500 (Eastern Standard Time),images/dog-parade-great-dane.png,images/great-dane.png,30,NA,NA,NA,no,,dogs2,susan,NA,NA,1,,"Your friend runs far ahead of you, and you see him in the distance: ",0,NA,,dogs,Thank you for an interesting exercise,0,NA,NA,,big,NA,,,,NA,You and your friend see the following:,1,1576243708737,NA,NA,1.20,NA,NA,NA,custom_main_text1,Your friend says: </br><b>That's a big dog.</b>
1531,What do you think your friend meant?,NA,It is small  relative to other ,Fri Dec 13 2019 08:28:28 GMT-0500 (Eastern Standard Time),images/dog-parade-basic2.png,images/pug.png,30,NA,NA,NA,no,,dogs2,susan,NA,NA,0,,"Your friend runs far ahead of you, and you see him in the distance: ",0,NA,,dogs,Thank you for an interesting exercise,0,NA,NA,,small,NA,,,,NA,You and your friend see the following:,2,1576243708737,NA,NA,1.20,NA,NA,NA,custom_main_text1,Your friend says: </br><b>That's a small one.</b>
1531,What do you think your friend meant?,NA,It is big  relative to other ,Fri Dec 13 2019 08:28:28 GMT-0500 (Eastern Standard Time),images/bird-parade-basic.png,images/eagle.png,30,NA,NA,NA,no,,birds,susan,NA,NA,0,,"Your friend runs far ahead of you, and you see him in the distance: ",1,NA,,birds,Thank you for an interesting exercise,2,NA,NA,,big,NA,,,,NA,You and your friend see the following:,3,1576243708737,NA,NA,1.20,NA,NA,NA,custom_main_text1,Your friend says: </br><b>That one is big.</b>
1531,What do you think your friend meant?,NA,It is small  relative to other ,Fri Dec 13 2019 08:28:28 GMT-0500 (Eastern Standard Time),images/flower-parade-dandelion.png,images/dandelion.png,30,NA,NA,NA,no,,flowers,susan,NA,NA,1,,"Your friend runs far ahead of you, and you see him in the distance: ",1,NA,,weeds,Thank you for an interesting exercise,1,NA,NA,,small,NA,,,,NA,You and your friend see the following:,4,1576243708737,NA,NA,1.20,NA,NA,NA,custom_main_text1,Your friend says: </br><b>That dandelion is small.</b>
1531,What do you think your friend meant?,NA,It is small  relative to other ,Fri Dec 13 2019 08:28:28 GMT-0500 (Eastern Standard Time),images/bird-parade-hummingbird.png,images/hummingbird.png,30,NA,NA,NA,no,,birds,susan,NA,NA,1,,"Your friend runs far ahead of you, and you see him in the distance: ",0,NA,,birds,Thank you for an interesting exercise,0,NA,NA,,small,NA,,,,NA,You and your friend see the following:,5,1576243708737,NA,NA,1.20,NA,NA,NA,custom_main_text1,Your friend says: </br><b>That's a small bird.</b>
1531,What do you think your friend meant?,NA,It is big  relative to other ,Fri Dec 13 2019 08:28:28 GMT-0500 (Eastern Standard Time),images/flower-parade-basic.png,images/sunflower.png,30,NA,NA,NA,no,,flowers,susan,NA,NA,0,,"Your friend runs far ahead of you, and you see him in the distance: ",0,NA,,flowers,Thank you for an interesting exercise,1,NA,NA,,big,NA,,,,NA,You and your friend see the following:,6,1576243708737,NA,NA,1.20,NA,NA,NA,custom_main_text1,Your friend says: </br><b>That's a big sunflower.</b>
1531,NA,chihuahua,NA,Fri Dec 13 2019 08:28:28 GMT-0500 (Eastern Standard Time),NA,NA,30,warmup/doberman.png,chihuahua,This is a ,no,,dogs,susan,NA,doberman,NA,,Please label the pictures below.,NA,NA,,NA,Thank you for an interesting exercise,NA,warmup/chihuahua.jpg,Dogs,,NA,NA,,,NA,dogs,NA,1,1576243708737,1,This is a ,1.20,These are both,Great Dane,NA,warmup2,NA
1531,NA,chihuahua,NA,Fri Dec 13 2019 08:28:28 GMT-0500 (Eastern Standard Time),NA,NA,30,warmup/doberman.png,chihuahua,This is a ,no,,dogs,susan,NA,doberman,NA,,Please label the pictures below.,NA,NA,,NA,Thank you for an interesting exercise,NA,warmup/chihuahua.jpg,Dogs,,NA,NA,,,NA,dogs,NA,1,1576243708737,2,This is a ,1.20,These are both,Doberman,NA,warmup2,NA
1531,NA,Tree,NA,Fri Dec 13 2019 08:28:28 GMT-0500 (Eastern Standard Time),NA,NA,30,warmup/bonsai.jpg,redwood or sequoia (choose one),This is a ,no,,trees,susan,NA,bonsai,NA,,Please label the pictures below.,NA,NA,,NA,Thank you for an interesting exercise,NA,warmup/sequoia.png,plants,,NA,NA,,,NA,trees,NA,2,1576243708737,1,This is a ,1.20,These are both,weed,NA,warmup2,NA
1531,NA,redwood,NA,Fri Dec 13 2019 08:28:28 GMT-0500 (Eastern Standard Time),NA,NA,30,warmup/bonsai.jpg,redwood or sequoia (choose one),This is a ,no,,trees,susan,NA,bonsai,NA,,Please label the pictures below.,NA,NA,,NA,Thank you for an interesting exercise,NA,warmup/sequoia.png,trees,,NA,NA,,,NA,trees,NA,2,1576243708737,2,This is a ,1.20,These are both,bonsai,NA,warmup2,NA
1531,NA,swordfish,NA,Fri Dec 13 2019 08:28:28 GMT-0500 (Eastern Standard Time),NA,NA,30,warmup/goldfish.png,swordfish,This is a ,no,,fish,susan,NA,goldfish,NA,,Please label the pictures below.,NA,NA,,NA,Thank you for an interesting exercise,NA,warmup/swordfish.jpg,fish,,NA,NA,,,NA,fish,NA,3,1576243708737,1,This is a ,1.20,These are both,goldfish,NA,warmup2,NA
1531,What do you think your friend meant?,NA,It is big  relative to other ,Fri Dec 13 2019 08:28:28 GMT-0500 (Eastern Standard Time),images/fish-parade-swordfish.png,images/swordfish.png,30,NA,NA,NA,no,,fish,susan,NA,NA,1,,"Your friend runs far ahead of you, and you see him in the distance: ",1,NA,,swordfish,Thank you for an interesting exercise,1,NA,NA,,big,NA,,,,NA,You and your friend see the following:,1,1576243708737,NA,NA,1.20,NA,NA,NA,custom_main_text2,Your friend says: </br><b>That swordfish is big.</b>
1531,What do you think your friend meant?,NA,It is small  relative to other ,Fri Dec 13 2019 08:28:28 GMT-0500 (Eastern Standard Time),images/tree-parade-basic.png,images/bonsai.png,30,NA,NA,NA,no,,trees,susan,NA,NA,0,,"Your friend runs far ahead of you, and you see him in the distance: ",0,NA,,trees,Thank you for an interesting exercise,0,NA,NA,,small,NA,,,,NA,You and your friend see the following:,2,1576243708737,NA,NA,1.20,NA,NA,NA,custom_main_text2,Your friend says: </br><b>That's a small tree.</b>
1531,What do you think your friend meant?,NA,It is big  relative to other ,Fri Dec 13 2019 08:28:28 GMT-0500 (Eastern Standard Time),images/dog-parade-basic.png,images/doberman.png,30,NA,NA,NA,no,,dogs1,susan,NA,NA,0,,"Your friend runs far ahead of you, and you see him in the distance: ",1,NA,,dogs,Thank you for an interesting exercise,2,NA,NA,,big,NA,,,,NA,You and your friend see the following:,3,1576243708737,NA,NA,1.20,NA,NA,NA,custom_main_text2,Your friend says: </br><b>That one is big.</b>
1531,What do you think your friend meant?,NA,It is small  relative to other ,Fri Dec 13 2019 08:28:28 GMT-0500 (Eastern Standard Time),images/fish-parade-basic.png,images/goldfish.png,30,NA,NA,NA,no,,fish,susan,NA,NA,0,,"Your friend runs far ahead of you, and you see him in the distance: ",1,NA,,fish,Thank you for an interesting exercise,2,NA,NA,,small,NA,,,,NA,You and your friend see the following:,4,1576243708737,NA,NA,1.20,NA,NA,NA,custom_main_text2,Your friend says: </br><b>That one is small.</b>
1531,What do you think your friend meant?,NA,It is small  relative to other ,Fri Dec 13 2019 08:28:28 GMT-0500 (Eastern Standard Time),images/dog-parade-chihuahua.png,images/chihuahua.png,30,NA,NA,NA,no,,dogs1,susan,NA,NA,1,,"Your friend runs far ahead of you, and you see him in the distance: ",0,NA,,dogs,Thank you for an interesting exercise,0,NA,NA,,small,NA,,,,NA,You and your friend see the following:,5,1576243708737,NA,NA,1.20,NA,NA,NA,custom_main_text2,Your friend says: </br><b>That's a small dog.</b>
1531,What do you think your friend meant?,NA,It is big  relative to other ,Fri Dec 13 2019 08:28:28 GMT-0500 (Eastern Standard Time),images/tree-parade-redwood.png,images/redwood.png,30,NA,NA,NA,no,,trees,susan,NA,NA,1,,"Your friend runs far ahead of you, and you see him in the distance: ",1,NA,,redwoods,Thank you for an interesting exercise,1,NA,NA,,big,NA,,,,NA,You and your friend see the following:,6,1576243708737,NA,NA,1.20,NA,NA,NA,custom_main_text2,Your friend says: </br><b>That redwood is big.</b>
1532,<i>What do you think Speaker A meant? </i>,NA,The Empire State Building is tall relative to other ,Fri Dec 13 2019 08:30:58 GMT-0500 (Eastern Standard Time),NA,NA,30,NA,NA,NA,,2,NA,Patricia,1,NA,NA,yes,NA,NA,"<b> Speaker A: ""The Empire State Building is tall.""</b>",38,building,,NA,NA,NA,graduated_college,NA,comp_class_warmup,English,male,NA,NA,In the main trials you will be asked to rephrase something a person said. The utterance will contain a word that is <i>relative</i> and your task is to figure out what it is relative to. <br /> <br /> For example: <br /><br />,1,1576243858863,1,NA,1.2,NA,NA,"buildings, skyscrapers, houses, constructions (choose one)",comp_class_warmup,NA
1532,NA,Tree,NA,Fri Dec 13 2019 08:30:58 GMT-0500 (Eastern Standard Time),NA,NA,30,warmup/bonsai.jpg,redwood or sequoia (choose one),This is a ,,2,trees,Patricia,NA,bonsai,NA,yes,Please label the pictures below.,NA,NA,38,NA,,NA,warmup/sequoia.png,trees,graduated_college,NA,NA,English,male,NA,trees,NA,1,1576243858863,1,This is a ,1.2,These are both,tree,NA,warmup1,NA
1532,NA,redwood,NA,Fri Dec 13 2019 08:30:58 GMT-0500 (Eastern Standard Time),NA,NA,30,warmup/bonsai.jpg,redwood or sequoia (choose one),This is a ,,2,trees,Patricia,NA,bonsai,NA,yes,Please label the pictures below.,NA,NA,38,NA,,NA,warmup/sequoia.png,trees,graduated_college,NA,NA,English,male,NA,trees,NA,1,1576243858863,2,This is a ,1.2,These are both,bonsai,NA,warmup1,NA
1532,NA,chihuahua,NA,Fri Dec 13 2019 08:30:58 GMT-0500 (Eastern Standard Time),NA,NA,30,warmup/doberman.png,chihuahua,This is a ,,2,dogs,Patricia,NA,doberman,NA,yes,Please label the pictures below.,NA,NA,38,NA,,NA,warmup/chihuahua.jpg,dogs,graduated_college,NA,NA,English,male,NA,dogs,NA,2,1576243858863,1,This is a ,1.2,These are both,dog,NA,warmup1,NA
1532,NA,chihuahua,NA,Fri Dec 13 2019 08:30:58 GMT-0500 (Eastern Standard Time),NA,NA,30,warmup/doberman.png,chihuahua,This is a ,,2,dogs,Patricia,NA,doberman,NA,yes,Please label the pictures below.,NA,NA,38,NA,,NA,warmup/chihuahua.jpg,dogs,graduated_college,NA,NA,English,male,NA,dogs,NA,2,1576243858863,2,This is a ,1.2,These are both,doberman,NA,warmup1,NA
1532,NA,swordfish,NA,Fri Dec 13 2019 08:30:58 GMT-0500 (Eastern Standard Time),NA,NA,30,warmup/goldfish.png,swordfish,This is a ,,2,fish,Patricia,NA,goldfish,NA,yes,Please label the pictures below.,NA,NA,38,NA,,NA,warmup/swordfish.jpg,fish,graduated_college,NA,NA,English,male,NA,fish,NA,3,1576243858863,1,This is a ,1.2,These are both,goldfish,NA,warmup1,NA
1532,What do you think your friend meant?,NA,It is big  relative to other ,Fri Dec 13 2019 08:30:58 GMT-0500 (Eastern Standard Time),images/dog-parade-doberman.png,images/doberman.png,30,NA,NA,NA,,2,dogs1,Patricia,NA,NA,1,yes,"Your friend runs far ahead of you, and you see him in the distance: ",0,NA,38,doberman,,2,NA,NA,graduated_college,big,NA,English,male,,NA,You and your friend see the following:,1,1576243858863,NA,NA,1.2,NA,NA,NA,custom_main_text1,Your friend says: </br><b>That's a big one.</b>
1532,What do you think your friend meant?,NA,It is small  relative to other ,Fri Dec 13 2019 08:30:58 GMT-0500 (Eastern Standard Time),images/tree-parade-basic.png,images/bonsai.png,30,NA,NA,NA,,2,trees,Patricia,NA,NA,0,yes,"Your friend runs far ahead of you, and you see him in the distance: ",0,NA,38,trees,,0,NA,NA,graduated_college,small,NA,English,male,,NA,You and your friend see the following:,2,1576243858863,NA,NA,1.2,NA,NA,NA,custom_main_text1,Your friend says: </br><b>That's a small tree.</b>
