submission_id,question,response1,sentence_left,context_picture,experiment_id,picture2,correct1,question1,problems,enjoyment,item,botresponse,correct2,pic_spec,understand,text,age,response,comments,ref_spec,picture1,response3,education,target_size,languages,sex,RT,correct3,context,trial_number,startTime,attempts,question3,fairprice,question2,response2,trial_name
282,NA,chihuahua,NA,NA,9,warmup/doberman.png,chihuahua,This is a,No,2,dogs,elizabeth,doberman,NA,yes,Please label the pictures below.,48,NA,None,NA,warmup/chihuahua.jpg,Dogs,graduated_college,NA,English,female,NA,dogs,NA,1,1565987659541,1,This is a,1,These are both,dobermann,warmup1
282,NA,chihuahua,NA,NA,9,warmup/doberman.png,chihuahua,This is a,No,2,dogs,elizabeth,doberman,NA,yes,Please label the pictures below.,48,NA,None,NA,warmup/chihuahua.jpg,Dogs,graduated_college,NA,English,female,NA,dogs,NA,1,1565987659541,2,This is a,1,These are both,doberman,warmup1
282,NA,clipart,NA,NA,9,warmup/sunflower.png,dandelion,This is a,No,2,flowers,elizabeth,sunflower,NA,yes,Please label the pictures below.,48,NA,None,NA,warmup/dandelion.jpg,flowers,graduated_college,NA,English,female,NA,flowers,NA,2,1565987659541,1,This is a,1,These are both,sunflower,warmup1
282,NA,dandelron,NA,NA,9,warmup/sunflower.png,dandelion,This is a,No,2,flowers,elizabeth,sunflower,NA,yes,Please label the pictures below.,48,NA,None,NA,warmup/dandelion.jpg,flowers,graduated_college,NA,English,female,NA,flowers,NA,2,1565987659541,2,This is a,1,These are both,sunflower,warmup1
282,NA,dandelion,NA,NA,9,warmup/sunflower.png,dandelion,This is a,No,2,flowers,elizabeth,sunflower,NA,yes,Please label the pictures below.,48,NA,None,NA,warmup/dandelion.jpg,flowers,graduated_college,NA,English,female,NA,flowers,NA,2,1565987659541,3,This is a,1,These are both,sunflower,warmup1
282,NA,Babby,NA,NA,9,warmup/great-dane.jpg,pug,This is a,No,2,dogs,elizabeth,great dane,NA,yes,Please label the pictures below.,48,NA,None,NA,warmup/pug.jpg,Dogs,graduated_college,NA,English,female,NA,dogs,NA,3,1565987659541,1,This is a,1,These are both,doberman,warmup1
282,NA,pug,NA,NA,9,warmup/great-dane.jpg,pug,This is a,No,2,dogs,elizabeth,great dane,NA,yes,Please label the pictures below.,48,NA,None,NA,warmup/pug.jpg,Dogs,graduated_college,NA,English,female,NA,dogs,NA,3,1565987659541,2,This is a,1,These are both,great dane,warmup1
282,Please rephrase your friend's comment.,NA,It is small relative to other,images/dog-parade-pug.png,9,NA,NA,NA,No,2,dogs2,elizabeth,NA,1,yes,Your friend points to another member of the group which you cannot see and says: <br/><b>That's a small one.</b>,48,dogs,None,1,NA,NA,graduated_college,small,English,female,NA,NA,You and your friend see the following:,1,1565987659541,NA,NA,1,NA,NA,custom_main_text1
282,Please rephrase your friend's comment.,NA,It is big relative to other,images/flower-parade-sunflower.png,9,NA,NA,NA,No,2,flowers,elizabeth,NA,1,yes,Your friend points to another member of the group which you cannot see and says: <br/><b>That's a big one.</b>,48,flowers,None,1,NA,NA,graduated_college,big,English,female,NA,NA,You and your friend see the following:,2,1565987659541,NA,NA,1,NA,NA,custom_main_text1
282,Please rephrase your friend's comment.,NA,It is small relative to other,images/dog-parade-basic.png,9,NA,NA,NA,No,2,dogs1,elizabeth,NA,0,yes,Your friend points to another member of the group which you cannot see and says: <br/><b>That's a small chihuahua.</b>,48,dogs,None,0,NA,NA,graduated_college,small,English,female,NA,NA,You and your friend see the following:,3,1565987659541,NA,NA,1,NA,NA,custom_main_text1
282,NA,clipart,NA,NA,9,warmup/bonsai.jpg,redwood|sequoia,This is a,No,2,trees,elizabeth,bonsai,NA,yes,Please label the pictures below.,48,NA,None,NA,warmup/sequoia.jpg,trees,graduated_college,NA,English,female,NA,trees,NA,1,1565987659541,1,This is a,1,These are both,plant,warmup2
282,NA,redwood,NA,NA,9,warmup/bonsai.jpg,redwood|sequoia,This is a,No,2,trees,elizabeth,bonsai,NA,yes,Please label the pictures below.,48,NA,None,NA,warmup/sequoia.jpg,trees,graduated_college,NA,English,female,NA,trees,NA,1,1565987659541,2,This is a,1,These are both,bonasi,warmup2
282,NA,redwood,NA,NA,9,warmup/bonsai.jpg,redwood|sequoia,This is a,No,2,trees,elizabeth,bonsai,NA,yes,Please label the pictures below.,48,NA,None,NA,warmup/sequoia.jpg,trees,graduated_college,NA,English,female,NA,trees,NA,1,1565987659541,3,This is a,1,These are both,bonasi,warmup2
282,NA,redwood,NA,NA,9,warmup/bonsai.jpg,redwood|sequoia,This is a,No,2,trees,elizabeth,bonsai,NA,yes,Please label the pictures below.,48,NA,None,NA,warmup/sequoia.jpg,plants,graduated_college,NA,English,female,NA,trees,NA,1,1565987659541,4,This is a,1,These are both,bonasi,warmup2
282,NA,redwood,NA,NA,9,warmup/bonsai.jpg,redwood|sequoia,This is a,No,2,trees,elizabeth,bonsai,NA,yes,Please label the pictures below.,48,NA,None,NA,warmup/sequoia.jpg,trees,graduated_college,NA,English,female,NA,trees,NA,1,1565987659541,5,This is a,1,These are both,bonasi,warmup2
282,NA,redwood,NA,NA,9,warmup/bonsai.jpg,redwood|sequoia,This is a,No,2,trees,elizabeth,bonsai,NA,yes,Please label the pictures below.,48,NA,None,NA,warmup/sequoia.jpg,trees,graduated_college,NA,English,female,NA,trees,NA,1,1565987659541,6,This is a,1,These are both,bonasi,warmup2
282,NA,redwood,NA,NA,9,warmup/bonsai.jpg,redwood|sequoia,This is a,No,2,trees,elizabeth,bonsai,NA,yes,Please label the pictures below.,48,NA,None,NA,warmup/sequoia.jpg,Trees,graduated_college,NA,English,female,NA,trees,NA,1,1565987659541,7,This is a,1,These are both,bonasi,warmup2
282,NA,redwood,NA,NA,9,warmup/bonsai.jpg,redwood|sequoia,This is a,No,2,trees,elizabeth,bonsai,NA,yes,Please label the pictures below.,48,NA,None,NA,warmup/sequoia.jpg,Trees,graduated_college,NA,English,female,NA,trees,NA,1,1565987659541,8,This is a,1,These are both,bonsai,warmup2
282,NA,marlin,NA,NA,9,warmup/goldfish.png,swordfish,This is a,No,2,fish,elizabeth,goldfish,NA,yes,Please label the pictures below.,48,NA,None,NA,warmup/swordfish.jpg,fish,graduated_college,NA,English,female,NA,fish,NA,2,1565987659541,1,This is a,1,These are both,gold fish,warmup2
282,NA,marlin,NA,NA,9,warmup/goldfish.png,swordfish,This is a,No,2,fish,elizabeth,goldfish,NA,yes,Please label the pictures below.,48,NA,None,NA,warmup/swordfish.jpg,fish,graduated_college,NA,English,female,NA,fish,NA,2,1565987659541,2,This is a,1,These are both,gold fish,warmup2
282,NA,swordfish,NA,NA,9,warmup/goldfish.png,swordfish,This is a,No,2,fish,elizabeth,goldfish,NA,yes,Please label the pictures below.,48,NA,None,NA,warmup/swordfish.jpg,fish,graduated_college,NA,English,female,NA,fish,NA,2,1565987659541,3,This is a,1,These are both,goldfish,warmup2
282,NA,humming bird,NA,NA,9,warmup/eagle.jpg,hummingbird,This is a,No,2,birds,elizabeth,eagle,NA,yes,Please label the pictures below.,48,NA,None,NA,warmup/colibri.jpg,birds,graduated_college,NA,English,female,NA,birds,NA,3,1565987659541,1,This is an,1,These are both,eagle,warmup2
282,NA,hummingbird,NA,NA,9,warmup/eagle.jpg,hummingbird,This is a,No,2,birds,elizabeth,eagle,NA,yes,Please label the pictures below.,48,NA,None,NA,warmup/colibri.jpg,birds,graduated_college,NA,English,female,NA,birds,NA,3,1565987659541,2,This is an,1,These are both,eagle,warmup2
282,Please rephrase your friend's comment.,NA,It is small relative to other,images/tree-parade-basic.png,9,NA,NA,NA,No,2,trees,elizabeth,NA,0,yes,Your friend points to another member of the group which you cannot see and says: <br/><b>That's a small bonsai.</b>,48,trees,None,0,NA,NA,graduated_college,small,English,female,NA,NA,You and your friend see the following:,1,1565987659541,NA,NA,1,NA,NA,custom_main_text2
282,Please rephrase your friend's comment.,NA,It is big relative to other,images/fish-parade-basic.png,9,NA,NA,NA,No,2,fish,elizabeth,NA,0,yes,Your friend points to another member of the group which you cannot see and says: <br/><b>That's a big one.</b>,48,fish,None,1,NA,NA,graduated_college,big,English,female,NA,NA,You and your friend see the following:,2,1565987659541,NA,NA,1,NA,NA,custom_main_text2
282,Please rephrase your friend's comment.,NA,It is big relative to other,images/bird-parade-eagle.png,9,NA,NA,NA,No,2,birds,elizabeth,NA,1,yes,Your friend points to another member of the group which you cannot see and says: <br/><b> That's a big eagle.</b>,48,birds,None,0,NA,NA,graduated_college,big,English,female,NA,NA,You and your friend see the following:,3,1565987659541,NA,NA,1,NA,NA,custom_main_text2
281,NA,small dog,NA,NA,9,warmup/doberman.png,chihuahua,This is a,no,2,dogs,sarah,doberman,NA,yes,Please label the pictures below.,51,NA,none,NA,warmup/chihuahua.jpg,dogs,graduated_college,NA,English,male,NA,dogs,NA,1,1565987555273,1,This is a,1.5,These are both,big dog,warmup1
281,NA,chihuahua,NA,NA,9,warmup/doberman.png,chihuahua,This is a,no,2,dogs,sarah,doberman,NA,yes,Please label the pictures below.,51,NA,none,NA,warmup/chihuahua.jpg,dogs,graduated_college,NA,English,male,NA,dogs,NA,1,1565987555273,2,This is a,1.5,These are both,doberman,warmup1
281,NA,dandelion,NA,NA,9,warmup/sunflower.png,dandelion,This is a,no,2,flowers,sarah,sunflower,NA,yes,Please label the pictures below.,51,NA,none,NA,warmup/dandelion.jpg,flowers,graduated_college,NA,English,male,NA,flowers,NA,2,1565987555273,1,This is a,1.5,These are both,sunflower,warmup1
281,NA,evergreen tree,NA,NA,9,warmup/bonsai.jpg,redwood|sequoia,This is a,no,2,trees,sarah,bonsai,NA,yes,Please label the pictures below.,51,NA,none,NA,warmup/sequoia.jpg,trees,graduated_college,NA,English,male,NA,trees,NA,3,1565987555273,1,This is a,1.5,These are both,bonsai tree,warmup1
281,NA,redwood,NA,NA,9,warmup/bonsai.jpg,redwood|sequoia,This is a,no,2,trees,sarah,bonsai,NA,yes,Please label the pictures below.,51,NA,none,NA,warmup/sequoia.jpg,trees,graduated_college,NA,English,male,NA,trees,NA,3,1565987555273,2,This is a,1.5,These are both,bonsai,warmup1
281,Please rephrase your friend's comment.,NA,It is small relative to other,images/dog-parade-basic.png,9,NA,NA,NA,no,2,dogs1,sarah,NA,0,yes,Your friend points to another member of the group which you cannot see and says: <br/><b>That's a small chihuahua.</b>,51,to a doberman,none,0,NA,NA,graduated_college,small,English,male,NA,NA,You and your friend see the following:,1,1565987555273,NA,NA,1.5,NA,NA,custom_main_text1
281,Please rephrase your friend's comment.,NA,It is big relative to other,images/tree-parade-redwood.png,9,NA,NA,NA,no,2,trees,sarah,NA,1,yes,Your friend points to another member of the group which you cannot see and says: <br/><b>That's a big one.</b>,51,sequoias,none,1,NA,NA,graduated_college,big,English,male,NA,NA,You and your friend see the following:,2,1565987555273,NA,NA,1.5,NA,NA,custom_main_text1
281,Please rephrase your friend's comment.,NA,It is small relative to other,images/flower-parade-basic.png,9,NA,NA,NA,no,2,flowers,sarah,NA,0,yes,Your friend points to another member of the group which you cannot see and says: <br/><b>That's a small dandelion.</b>,51,sunflowers,none,0,NA,NA,graduated_college,small,English,male,NA,NA,You and your friend see the following:,3,1565987555273,NA,NA,1.5,NA,NA,custom_main_text1
281,NA,chihuahua,NA,NA,9,warmup/great-dane.jpg,pug,This is a,no,2,dogs,sarah,great dane,NA,yes,Please label the pictures below.,51,NA,none,NA,warmup/pug.jpg,dogs,graduated_college,NA,English,male,NA,dogs,NA,1,1565987555273,1,This is a,1.5,These are both,beagle,warmup2
281,NA,pug,NA,NA,9,warmup/great-dane.jpg,pug,This is a,no,2,dogs,sarah,great dane,NA,yes,Please label the pictures below.,51,NA,none,NA,warmup/pug.jpg,dogs,graduated_college,NA,English,male,NA,dogs,NA,1,1565987555273,2,This is a,1.5,These are both,great dane,warmup2
281,NA,humming bird,NA,NA,9,warmup/eagle.jpg,hummingbird,This is a,no,2,birds,sarah,eagle,NA,yes,Please label the pictures below.,51,NA,none,NA,warmup/colibri.jpg,birds,graduated_college,NA,English,male,NA,birds,NA,2,1565987555273,1,This is an,1.5,These are both,eagle,warmup2
281,NA,hummingbird,NA,NA,9,warmup/eagle.jpg,hummingbird,This is a,no,2,birds,sarah,eagle,NA,yes,Please label the pictures below.,51,NA,none,NA,warmup/colibri.jpg,birds,graduated_college,NA,English,male,NA,birds,NA,2,1565987555273,2,This is an,1.5,These are both,eagle,warmup2
281,NA,swordfish,NA,NA,9,warmup/goldfish.png,swordfish,This is a,no,2,fish,sarah,goldfish,NA,yes,Please label the pictures below.,51,NA,none,NA,warmup/swordfish.jpg,fish,graduated_college,NA,English,male,NA,fish,NA,3,1565987555273,1,This is a,1.5,These are both,minnow,warmup2
281,NA,swordfish,NA,NA,9,warmup/goldfish.png,swordfish,This is a,no,2,fish,sarah,goldfish,NA,yes,Please label the pictures below.,51,NA,none,NA,warmup/swordfish.jpg,fish,graduated_college,NA,English,male,NA,fish,NA,3,1565987555273,2,This is a,1.5,These are both,goldfish,warmup2
281,Please rephrase your friend's comment.,NA,It is big relative to other,images/fish-parade-swordfish.png,9,NA,NA,NA,no,2,fish,sarah,NA,1,yes,Your friend points to another member of the group which you cannot see and says: <br/><b>That's a big swordfish.</b>,51,goldfish,none,0,NA,NA,graduated_college,big,English,male,NA,NA,You and your friend see the following:,1,1565987555273,NA,NA,1.5,NA,NA,custom_main_text2
281,Please rephrase your friend's comment.,NA,It is big relative to other,images/bird-parade-eagle.png,9,NA,NA,NA,no,2,birds,sarah,NA,1,yes,Your friend points to another member of the group which you cannot see and says: <br/><b> That's a big one.</b>,51,eagles,none,1,NA,NA,graduated_college,big,English,male,NA,NA,You and your friend see the following:,2,1565987555273,NA,NA,1.5,NA,NA,custom_main_text2
281,Please rephrase your friend's comment.,NA,It is small relative to other,images/dog-parade-basic2.png,9,NA,NA,NA,no,2,dogs2,sarah,NA,0,yes,Your friend points to another member of the group which you cannot see and says: <br/><b>That's a small one.</b>,51,pugs,none,1,NA,NA,graduated_college,small,English,male,NA,NA,You and your friend see the following:,3,1565987555273,NA,NA,1.5,NA,NA,custom_main_text2
280,NA,tall,NA,NA,9,warmup/bonsai.jpg,redwood|sequoia,This is a,none,1,trees,linda,bonsai,NA,yes,Please label the pictures below.,28,NA,all good,NA,warmup/sequoia.jpg,green,graduated_college,NA,English,female,NA,trees,NA,1,1565987209999,1,This is a,1,These are both,short,warmup1
280,NA,tall,NA,NA,9,warmup/bonsai.jpg,redwood|sequoia,This is a,none,1,trees,linda,bonsai,NA,yes,Please label the pictures below.,28,NA,all good,NA,warmup/sequoia.jpg,trees,graduated_college,NA,English,female,NA,trees,NA,1,1565987209999,2,This is a,1,These are both,short,warmup1
280,NA,tall,NA,NA,9,warmup/bonsai.jpg,redwood|sequoia,This is a,none,1,trees,linda,bonsai,NA,yes,Please label the pictures below.,28,NA,all good,NA,warmup/sequoia.jpg,trees,graduated_college,NA,English,female,NA,trees,NA,1,1565987209999,3,This is a,1,These are both,short,warmup1
280,NA,redwood,NA,NA,9,warmup/bonsai.jpg,redwood|sequoia,This is a,none,1,trees,linda,bonsai,NA,yes,Please label the pictures below.,28,NA,all good,NA,warmup/sequoia.jpg,trees,graduated_college,NA,English,female,NA,trees,NA,1,1565987209999,4,This is a,1,These are both,bonsai,warmup1
280,NA,chihuahua,NA,NA,9,warmup/doberman.png,chihuahua,This is a,none,1,dogs,linda,doberman,NA,yes,Please label the pictures below.,28,NA,all good,NA,warmup/chihuahua.jpg,dogs,graduated_college,NA,English,female,NA,dogs,NA,2,1565987209999,1,This is a,1,These are both,doberman,warmup1
280,NA,hummingbird,NA,NA,9,warmup/eagle.jpg,hummingbird,This is a,none,1,birds,linda,eagle,NA,yes,Please label the pictures below.,28,NA,all good,NA,warmup/colibri.jpg,birds,graduated_college,NA,English,female,NA,birds,NA,3,1565987209999,1,This is an,1,These are both,eagle,warmup1
280,Please rephrase your friend's comment.,NA,It is small relative to other,images/dog-parade-chihuahua.png,9,NA,NA,NA,none,1,dogs1,linda,NA,1,yes,Your friend points to another member of the group which you cannot see and says: <br/><b>That chihuahua is small.</b>,28,chihuahua,all good,0,NA,NA,graduated_college,small,English,female,NA,NA,You and your friend see the following:,1,1565987209999,NA,NA,1,NA,NA,custom_main_text1
280,Please rephrase your friend's comment.,NA,It is small relative to other,images/bird-parade-basic.png,9,NA,NA,NA,none,1,birds,linda,NA,0,yes,Your friend points to another member of the group which you cannot see and says: <br/><b> That one is small.</b>,28,birds,all good,1,NA,NA,graduated_college,small,English,female,NA,NA,You and your friend see the following:,2,1565987209999,NA,NA,1,NA,NA,custom_main_text1
280,Please rephrase your friend's comment.,NA,It is big relative to other,images/tree-parade-redwood.png,9,NA,NA,NA,none,1,trees,linda,NA,1,yes,Your friend points to another member of the group which you cannot see and says: <br/><b>That one is big.</b>,28,redwoods,all good,1,NA,NA,graduated_college,big,English,female,NA,NA,You and your friend see the following:,3,1565987209999,NA,NA,1,NA,NA,custom_main_text1
280,NA,dandeliom,NA,NA,9,warmup/sunflower.png,dandelion,This is a,none,1,flowers,linda,sunflower,NA,yes,Please label the pictures below.,28,NA,all good,NA,warmup/dandelion.jpg,flowers,graduated_college,NA,English,female,NA,flowers,NA,1,1565987209999,1,This is a,1,These are both,sunflower,warmup2
280,NA,dandelion,NA,NA,9,warmup/sunflower.png,dandelion,This is a,none,1,flowers,linda,sunflower,NA,yes,Please label the pictures below.,28,NA,all good,NA,warmup/dandelion.jpg,flowers,graduated_college,NA,English,female,NA,flowers,NA,1,1565987209999,2,This is a,1,These are both,sunflower,warmup2
280,NA,pug,NA,NA,9,warmup/great-dane.jpg,pug,This is a,none,1,dogs,linda,great dane,NA,yes,Please label the pictures below.,28,NA,all good,NA,warmup/pug.jpg,dogs,graduated_college,NA,English,female,NA,dogs,NA,2,1565987209999,1,This is a,1,These are both,weinmaraner,warmup2
280,NA,pug,NA,NA,9,warmup/great-dane.jpg,pug,This is a,none,1,dogs,linda,great dane,NA,yes,Please label the pictures below.,28,NA,all good,NA,warmup/pug.jpg,dogs,graduated_college,NA,English,female,NA,dogs,NA,2,1565987209999,2,This is a,1,These are both,great dane,warmup2
280,NA,swordfish,NA,NA,9,warmup/goldfish.png,swordfish,This is a,none,1,fish,linda,goldfish,NA,yes,Please label the pictures below.,28,NA,all good,NA,warmup/swordfish.jpg,fish,graduated_college,NA,English,female,NA,fish,NA,3,1565987209999,1,This is a,1,These are both,goldfish,warmup2
280,Please rephrase your friend's comment.,NA,It is big relative to other,images/fish-parade-basic.png,9,NA,NA,NA,none,1,fish,linda,NA,0,yes,Your friend points to another member of the group which you cannot see and says: <br/><b>That swordfish is big.</b>,28,swordfish,all good,0,NA,NA,graduated_college,big,English,female,NA,NA,You and your friend see the following:,1,1565987209999,NA,NA,1,NA,NA,custom_main_text2
280,Please rephrase your friend's comment.,NA,It is big relative to other,images/flower-parade-basic.png,9,NA,NA,NA,none,1,flowers,linda,NA,0,yes,Your friend points to another member of the group which you cannot see and says: <br/><b>That sunflower is big.</b>,28,flowers,all good,0,NA,NA,graduated_college,big,English,female,NA,NA,You and your friend see the following:,2,1565987209999,NA,NA,1,NA,NA,custom_main_text2
280,Please rephrase your friend's comment.,NA,It is small relative to other,images/dog-parade-pug.png,9,NA,NA,NA,none,1,dogs2,linda,NA,1,yes,Your friend points to another member of the group which you cannot see and says: <br/><b>That one is small.</b>,28,dogs,all good,1,NA,NA,graduated_college,small,English,female,NA,NA,You and your friend see the following:,3,1565987209999,NA,NA,1,NA,NA,custom_main_text2
279,NA,dog,NA,NA,9,warmup/great-dane.jpg,pug,This is a,No,2,dogs,margaret,great dane,NA,yes,Please label the pictures below.,33,NA,None.,NA,warmup/pug.jpg,dogs,graduated_college,NA,English,male,NA,dogs,NA,1,1565986724431,1,This is a,1,These are both,dog,warmup1
279,NA,pug,NA,NA,9,warmup/great-dane.jpg,pug,This is a,No,2,dogs,margaret,great dane,NA,yes,Please label the pictures below.,33,NA,None.,NA,warmup/pug.jpg,dogs,graduated_college,NA,English,male,NA,dogs,NA,1,1565986724431,2,This is a,1,These are both,great dane,warmup1
279,NA,sycamore,NA,NA,9,warmup/bonsai.jpg,redwood|sequoia,This is a,No,2,trees,margaret,bonsai,NA,yes,Please label the pictures below.,33,NA,None.,NA,warmup/sequoia.jpg,trees,graduated_college,NA,English,male,NA,trees,NA,2,1565986724431,1,This is a,1,These are both,bonzai,warmup1
279,NA,sequoia,NA,NA,9,warmup/bonsai.jpg,redwood|sequoia,This is a,No,2,trees,margaret,bonsai,NA,yes,Please label the pictures below.,33,NA,None.,NA,warmup/sequoia.jpg,trees,graduated_college,NA,English,male,NA,trees,NA,2,1565986724431,2,This is a,1,These are both,bonsai,warmup1
279,NA,daffodil,NA,NA,9,warmup/sunflower.png,dandelion,This is a,No,2,flowers,margaret,sunflower,NA,yes,Please label the pictures below.,33,NA,None.,NA,warmup/dandelion.jpg,flowers,graduated_college,NA,English,male,NA,flowers,NA,3,1565986724431,1,This is a,1,These are both,sunflower,warmup1
279,NA,dandelion,NA,NA,9,warmup/sunflower.png,dandelion,This is a,No,2,flowers,margaret,sunflower,NA,yes,Please label the pictures below.,33,NA,None.,NA,warmup/dandelion.jpg,flowers,graduated_college,NA,English,male,NA,flowers,NA,3,1565986724431,2,This is a,1,These are both,sunflower,warmup1
279,Please rephrase your friend's comment.,NA,It is big relative to other,images/flower-parade-sunflower.png,9,NA,NA,NA,No,2,flowers,margaret,NA,1,yes,Your friend points to another member of the group which you cannot see and says: <br/><b>That one is big.</b>,33,sunflowers,None.,1,NA,NA,graduated_college,big,English,male,NA,NA,You and your friend see the following:,1,1565986724431,NA,NA,1,NA,NA,custom_main_text1
279,Please rephrase your friend's comment.,NA,It is small relative to other,images/dog-parade-basic2.png,9,NA,NA,NA,No,2,dogs2,margaret,NA,0,yes,Your friend points to another member of the group which you cannot see and says: <br/><b>That pug is small.</b>,33,dogs,None.,0,NA,NA,graduated_college,small,English,male,NA,NA,You and your friend see the following:,2,1565986724431,NA,NA,1,NA,NA,custom_main_text1
279,Please rephrase your friend's comment.,NA,It is small relative to other,images/tree-parade-basic.png,9,NA,NA,NA,No,2,trees,margaret,NA,0,yes,Your friend points to another member of the group which you cannot see and says: <br/><b>That bonsai is small.</b>,33,trees,None.,0,NA,NA,graduated_college,small,English,male,NA,NA,You and your friend see the following:,3,1565986724431,NA,NA,1,NA,NA,custom_main_text1
279,NA,swordfish,NA,NA,9,warmup/goldfish.png,swordfish,This is a,No,2,fish,margaret,goldfish,NA,yes,Please label the pictures below.,33,NA,None.,NA,warmup/swordfish.jpg,fish,graduated_college,NA,English,male,NA,fish,NA,1,1565986724431,1,This is a,1,These are both,goldfish,warmup2
279,NA,hummingbird,NA,NA,9,warmup/eagle.jpg,hummingbird,This is a,No,2,birds,margaret,eagle,NA,yes,Please label the pictures below.,33,NA,None.,NA,warmup/colibri.jpg,birds,graduated_college,NA,English,male,NA,birds,NA,2,1565986724431,1,This is an,1,These are both,eagle,warmup2
279,NA,chihuahua,NA,NA,9,warmup/doberman.png,chihuahua,This is a,No,2,dogs,margaret,doberman,NA,yes,Please label the pictures below.,33,NA,None.,NA,warmup/chihuahua.jpg,dogs,graduated_college,NA,English,male,NA,dogs,NA,3,1565986724431,1,This is a,1,These are both,doberman,warmup2
279,Please rephrase your friend's comment.,NA,It is big relative to other,images/bird-parade-eagle.png,9,NA,NA,NA,No,2,birds,margaret,NA,1,yes,Your friend points to another member of the group which you cannot see and says: <br/><b> That eagle is big.</b>,33,eagles,None.,0,NA,NA,graduated_college,big,English,male,NA,NA,You and your friend see the following:,1,1565986724431,NA,NA,1,NA,NA,custom_main_text2
279,Please rephrase your friend's comment.,NA,It is big relative to other,images/dog-parade-doberman.png,9,NA,NA,NA,No,2,dogs1,margaret,NA,1,yes,Your friend points to another member of the group which you cannot see and says: <br/><b>That one is big.</b>,33,dobermans,None.,1,NA,NA,graduated_college,big,English,male,NA,NA,You and your friend see the following:,2,1565986724431,NA,NA,1,NA,NA,custom_main_text2
279,Please rephrase your friend's comment.,NA,It is small relative to other,images/fish-parade-basic.png,9,NA,NA,NA,No,2,fish,margaret,NA,0,yes,Your friend points to another member of the group which you cannot see and says: <br/><b>That one is small.</b>,33,fish,None.,1,NA,NA,graduated_college,small,English,male,NA,NA,You and your friend see the following:,3,1565986724431,NA,NA,1,NA,NA,custom_main_text2
278,NA,Shark,NA,NA,9,warmup/goldfish.png,swordfish,This is a,Nothing,1,fish,Jessica,goldfish,NA,NA,Please label the pictures below.,25,NA,interesting survey,NA,warmup/swordfish.jpg,fish,some_college,NA,English,male,NA,fish,NA,1,1565986278643,1,This is a,1.5,These are both,gold fish,warmup1
278,NA,swordfish,NA,NA,9,warmup/goldfish.png,swordfish,This is a,Nothing,1,fish,Jessica,goldfish,NA,NA,Please label the pictures below.,25,NA,interesting survey,NA,warmup/swordfish.jpg,fish,some_college,NA,English,male,NA,fish,NA,1,1565986278643,2,This is a,1.5,These are both,goldfish,warmup1
278,NA,squirrel,NA,NA,9,warmup/eagle.jpg,hummingbird,This is a,Nothing,1,birds,Jessica,eagle,NA,NA,Please label the pictures below.,25,NA,interesting survey,NA,warmup/colibri.jpg,birds,some_college,NA,English,male,NA,birds,NA,2,1565986278643,1,This is an,1.5,These are both,Eagle,warmup1
278,NA,hummingbird,NA,NA,9,warmup/eagle.jpg,hummingbird,This is a,Nothing,1,birds,Jessica,eagle,NA,NA,Please label the pictures below.,25,NA,interesting survey,NA,warmup/colibri.jpg,birds,some_college,NA,English,male,NA,birds,NA,2,1565986278643,2,This is an,1.5,These are both,Eagle,warmup1
278,NA,flower,NA,NA,9,warmup/sunflower.png,dandelion,This is a,Nothing,1,flowers,Jessica,sunflower,NA,NA,Please label the pictures below.,25,NA,interesting survey,NA,warmup/dandelion.jpg,flowers,some_college,NA,English,male,NA,flowers,NA,3,1565986278643,1,This is a,1.5,These are both,sunflower,warmup1
278,NA,dandelion,NA,NA,9,warmup/sunflower.png,dandelion,This is a,Nothing,1,flowers,Jessica,sunflower,NA,NA,Please label the pictures below.,25,NA,interesting survey,NA,warmup/dandelion.jpg,flowers,some_college,NA,English,male,NA,flowers,NA,3,1565986278643,2,This is a,1.5,These are both,sunflower,warmup1
278,Please rephrase your friend's comment.,NA,It is small relative to other,images/flower-parade-basic.png,9,NA,NA,NA,Nothing,1,flowers,Jessica,NA,0,NA,Your friend points to another member of the group which you cannot see and says: <br/><b>That one is small.</b>,25,Yes,interesting survey,1,NA,NA,some_college,small,English,male,NA,NA,You and your friend see the following:,1,1565986278643,NA,NA,1.5,NA,NA,custom_main_text1
278,Please rephrase your friend's comment.,NA,It is small relative to other,images/fish-parade-basic.png,9,NA,NA,NA,Nothing,1,fish,Jessica,NA,0,NA,Your friend points to another member of the group which you cannot see and says: <br/><b>That goldfish is small.</b>,25,Yes,interesting survey,0,NA,NA,some_college,small,English,male,NA,NA,You and your friend see the following:,2,1565986278643,NA,NA,1.5,NA,NA,custom_main_text1
278,Please rephrase your friend's comment.,NA,It is big relative to other,images/bird-parade-eagle.png,9,NA,NA,NA,Nothing,1,birds,Jessica,NA,1,NA,Your friend points to another member of the group which you cannot see and says: <br/><b> That one is big.</b>,25,That one is big,interesting survey,1,NA,NA,some_college,big,English,male,NA,NA,You and your friend see the following:,3,1565986278643,NA,NA,1.5,NA,NA,custom_main_text1
278,NA,tree,NA,NA,9,warmup/bonsai.jpg,redwood|sequoia,This is a,Nothing,1,trees,Jessica,bonsai,NA,NA,Please label the pictures below.,25,NA,interesting survey,NA,warmup/sequoia.jpg,trees,some_college,NA,English,male,NA,trees,NA,1,1565986278643,1,This is a,1.5,These are both,hfyt,warmup2
278,NA,redwood,NA,NA,9,warmup/bonsai.jpg,redwood|sequoia,This is a,Nothing,1,trees,Jessica,bonsai,NA,NA,Please label the pictures below.,25,NA,interesting survey,NA,warmup/sequoia.jpg,trees,some_college,NA,English,male,NA,trees,NA,1,1565986278643,2,This is a,1.5,These are both,bonsai,warmup2
278,NA,fox,NA,NA,9,warmup/doberman.png,chihuahua,This is a,Nothing,1,dogs,Jessica,doberman,NA,NA,Please label the pictures below.,25,NA,interesting survey,NA,warmup/chihuahua.jpg,animals,some_college,NA,English,male,NA,dogs,NA,2,1565986278643,1,This is a,1.5,These are both,dog,warmup2
278,NA,chihuahua,NA,NA,9,warmup/doberman.png,chihuahua,This is a,Nothing,1,dogs,Jessica,doberman,NA,NA,Please label the pictures below.,25,NA,interesting survey,NA,warmup/chihuahua.jpg,animals,some_college,NA,English,male,NA,dogs,NA,2,1565986278643,2,This is a,1.5,These are both,doberman,warmup2
278,NA,chihuahua,NA,NA,9,warmup/doberman.png,chihuahua,This is a,Nothing,1,dogs,Jessica,doberman,NA,NA,Please label the pictures below.,25,NA,interesting survey,NA,warmup/chihuahua.jpg,dogs,some_college,NA,English,male,NA,dogs,NA,2,1565986278643,3,This is a,1.5,These are both,doberman,warmup2
278,NA,hgdchg,NA,NA,9,warmup/great-dane.jpg,pug,This is a,Nothing,1,dogs,Jessica,great dane,NA,NA,Please label the pictures below.,25,NA,interesting survey,NA,warmup/pug.jpg,dogs,some_college,NA,English,male,NA,dogs,NA,3,1565986278643,1,This is a,1.5,These are both,hggfdhtj,warmup2
278,NA,pug,NA,NA,9,warmup/great-dane.jpg,pug,This is a,Nothing,1,dogs,Jessica,great dane,NA,NA,Please label the pictures below.,25,NA,interesting survey,NA,warmup/pug.jpg,dogs,some_college,NA,English,male,NA,dogs,NA,3,1565986278643,2,This is a,1.5,These are both,great dane,warmup2
278,Please rephrase your friend's comment.,NA,It is big relative to other,images/tree-parade-redwood.png,9,NA,NA,NA,Nothing,1,trees,Jessica,NA,1,NA,Your friend points to another member of the group which you cannot see and says: <br/><b>That one is big.</b>,25,That one is big,interesting survey,1,NA,NA,some_college,big,English,male,NA,NA,You and your friend see the following:,1,1565986278643,NA,NA,1.5,NA,NA,custom_main_text2
278,Please rephrase your friend's comment.,NA,It is small relative to other,images/dog-parade-chihuahua.png,9,NA,NA,NA,Nothing,1,dogs1,Jessica,NA,1,NA,Your friend points to another member of the group which you cannot see and says: <br/><b>That chihuahua is small.</b>,25,That chihuahua is small,interesting survey,0,NA,NA,some_college,small,English,male,NA,NA,You and your friend see the following:,2,1565986278643,NA,NA,1.5,NA,NA,custom_main_text2
278,Please rephrase your friend's comment.,NA,It is big relative to other,images/dog-parade-basic2.png,9,NA,NA,NA,Nothing,1,dogs2,Jessica,NA,0,NA,Your friend points to another member of the group which you cannot see and says: <br/><b>That great dane is big.</b>,25,That great dane is big,interesting survey,0,NA,NA,some_college,big,English,male,NA,NA,You and your friend see the following:,3,1565986278643,NA,NA,1.5,NA,NA,custom_main_text2
277,NA,hummingbird,NA,NA,9,warmup/eagle.jpg,hummingbird,This is a,no,2,birds,Sarah,eagle,NA,yes,Please label the pictures below.,28,NA,NA,NA,warmup/colibri.jpg,birds,some_college,NA,English,female,NA,birds,NA,1,1565986150130,1,This is an,1,These are both,eagle,warmup1
277,NA,daffodil,NA,NA,9,warmup/sunflower.png,dandelion,This is a,no,2,flowers,Sarah,sunflower,NA,yes,Please label the pictures below.,28,NA,NA,NA,warmup/dandelion.jpg,flowers,some_college,NA,English,female,NA,flowers,NA,2,1565986150130,1,This is a,1,These are both,sunflower,warmup1
277,NA,dandelion,NA,NA,9,warmup/sunflower.png,dandelion,This is a,no,2,flowers,Sarah,sunflower,NA,yes,Please label the pictures below.,28,NA,NA,NA,warmup/dandelion.jpg,flowers,some_college,NA,English,female,NA,flowers,NA,2,1565986150130,2,This is a,1,These are both,sunflower,warmup1
277,NA,dolphin,NA,NA,9,warmup/goldfish.png,swordfish,This is a,no,2,fish,Sarah,goldfish,NA,yes,Please label the pictures below.,28,NA,NA,NA,warmup/swordfish.jpg,fish,some_college,NA,English,female,NA,fish,NA,3,1565986150130,1,This is a,1,These are both,beta fish,warmup1
277,NA,swordfish,NA,NA,9,warmup/goldfish.png,swordfish,This is a,no,2,fish,Sarah,goldfish,NA,yes,Please label the pictures below.,28,NA,NA,NA,warmup/swordfish.jpg,fish,some_college,NA,English,female,NA,fish,NA,3,1565986150130,2,This is a,1,These are both,goldfish,warmup1
277,Please rephrase your friend's comment.,NA,It is small relative to other,images/bird-parade-basic.png,9,NA,NA,NA,no,2,birds,Sarah,NA,0,yes,Your friend points to another member of the group which you cannot see and says: <br/><b> That hummingbird is small.</b>,28,birds,NA,0,NA,NA,some_college,small,English,female,NA,NA,You and your friend see the following:,1,1565986150130,NA,NA,1,NA,NA,custom_main_text1
277,Please rephrase your friend's comment.,NA,It is big relative to other,images/fish-parade-swordfish.png,9,NA,NA,NA,no,2,fish,Sarah,NA,1,yes,Your friend points to another member of the group which you cannot see and says: <br/><b>That one is big.</b>,28,fish,NA,1,NA,NA,some_college,big,English,female,NA,NA,You and your friend see the following:,2,1565986150130,NA,NA,1,NA,NA,custom_main_text1
277,Please rephrase your friend's comment.,NA,It is big relative to other,images/flower-parade-sunflower.png,9,NA,NA,NA,no,2,flowers,Sarah,NA,1,yes,Your friend points to another member of the group which you cannot see and says: <br/><b>That one is big.</b>,28,sunflowers,NA,1,NA,NA,some_college,big,English,female,NA,NA,You and your friend see the following:,3,1565986150130,NA,NA,1,NA,NA,custom_main_text1
277,NA,chihahua,NA,NA,9,warmup/doberman.png,chihuahua,This is a,no,2,dogs,Sarah,doberman,NA,yes,Please label the pictures below.,28,NA,NA,NA,warmup/chihuahua.jpg,dogs,some_college,NA,English,female,NA,dogs,NA,1,1565986150130,1,This is a,1,These are both,doberman,warmup2
277,NA,chihuahua,NA,NA,9,warmup/doberman.png,chihuahua,This is a,no,2,dogs,Sarah,doberman,NA,yes,Please label the pictures below.,28,NA,NA,NA,warmup/chihuahua.jpg,dogs,some_college,NA,English,female,NA,dogs,NA,1,1565986150130,2,This is a,1,These are both,doberman,warmup2
277,NA,pine tree,NA,NA,9,warmup/bonsai.jpg,redwood|sequoia,This is a,no,2,trees,Sarah,bonsai,NA,yes,Please label the pictures below.,28,NA,NA,NA,warmup/sequoia.jpg,trees,some_college,NA,English,female,NA,trees,NA,2,1565986150130,1,This is a,1,These are both,bonzai tree,warmup2
277,NA,redwood,NA,NA,9,warmup/bonsai.jpg,redwood|sequoia,This is a,no,2,trees,Sarah,bonsai,NA,yes,Please label the pictures below.,28,NA,NA,NA,warmup/sequoia.jpg,trees,some_college,NA,English,female,NA,trees,NA,2,1565986150130,2,This is a,1,These are both,bonsai tree,warmup2
277,NA,redwood,NA,NA,9,warmup/bonsai.jpg,redwood|sequoia,This is a,no,2,trees,Sarah,bonsai,NA,yes,Please label the pictures below.,28,NA,NA,NA,warmup/sequoia.jpg,trees,some_college,NA,English,female,NA,trees,NA,2,1565986150130,3,This is a,1,These are both,bonsai,warmup2
277,NA,pug,NA,NA,9,warmup/great-dane.jpg,pug,This is a,no,2,dogs,Sarah,great dane,NA,yes,Please label the pictures below.,28,NA,NA,NA,warmup/pug.jpg,dogs,some_college,NA,English,female,NA,dogs,NA,3,1565986150130,1,This is a,1,These are both,labrador,warmup2
277,NA,pug,NA,NA,9,warmup/great-dane.jpg,pug,This is a,no,2,dogs,Sarah,great dane,NA,yes,Please label the pictures below.,28,NA,NA,NA,warmup/pug.jpg,dogs,some_college,NA,English,female,NA,dogs,NA,3,1565986150130,2,This is a,1,These are both,great dane,warmup2
277,Please rephrase your friend's comment.,NA,It is big relative to other,images/dog-parade-basic2.png,9,NA,NA,NA,no,2,dogs2,Sarah,NA,0,yes,Your friend points to another member of the group which you cannot see and says: <br/><b>That one is big.</b>,28,dogs,NA,1,NA,NA,some_college,big,English,female,NA,NA,You and your friend see the following:,1,1565986150130,NA,NA,1,NA,NA,custom_main_text2
277,Please rephrase your friend's comment.,NA,It is small relative to other,images/dog-parade-basic.png,9,NA,NA,NA,no,2,dogs1,Sarah,NA,0,yes,Your friend points to another member of the group which you cannot see and says: <br/><b>That chihuahua is small.</b>,28,dogs,NA,0,NA,NA,some_college,small,English,female,NA,NA,You and your friend see the following:,2,1565986150130,NA,NA,1,NA,NA,custom_main_text2
277,Please rephrase your friend's comment.,NA,It is small relative to other,images/tree-parade-bonsai.png,9,NA,NA,NA,no,2,trees,Sarah,NA,1,yes,Your friend points to another member of the group which you cannot see and says: <br/><b>That bonsai is small.</b>,28,bonsais,NA,0,NA,NA,some_college,small,English,female,NA,NA,You and your friend see the following:,3,1565986150130,NA,NA,1,NA,NA,custom_main_text2
276,NA,pug,NA,NA,9,warmup/great-dane.jpg,pug,This is a,no,2,dogs,elizabeth,great dane,NA,yes,Please label the pictures below.,29,NA,NA,NA,warmup/pug.jpg,dogs,graduated_high_school,NA,english,female,NA,dogs,NA,1,1565985758366,1,This is a,1,These are both,doberman,warmup1
276,NA,pug,NA,NA,9,warmup/great-dane.jpg,pug,This is a,no,2,dogs,elizabeth,great dane,NA,yes,Please label the pictures below.,29,NA,NA,NA,warmup/pug.jpg,dogs,graduated_high_school,NA,english,female,NA,dogs,NA,1,1565985758366,2,This is a,1,These are both,great dane,warmup1
276,NA,hunmmingbird,NA,NA,9,warmup/eagle.jpg,hummingbird,This is a,no,2,birds,elizabeth,eagle,NA,yes,Please label the pictures below.,29,NA,NA,NA,warmup/colibri.jpg,birds,graduated_high_school,NA,english,female,NA,birds,NA,2,1565985758366,1,This is an,1,These are both,bald eagle,warmup1
276,NA,hummingbird,NA,NA,9,warmup/eagle.jpg,hummingbird,This is a,no,2,birds,elizabeth,eagle,NA,yes,Please label the pictures below.,29,NA,NA,NA,warmup/colibri.jpg,birds,graduated_high_school,NA,english,female,NA,birds,NA,2,1565985758366,2,This is an,1,These are both,eagle,warmup1
276,NA,tree,NA,NA,9,warmup/bonsai.jpg,redwood|sequoia,This is a,no,2,trees,elizabeth,bonsai,NA,yes,Please label the pictures below.,29,NA,NA,NA,warmup/sequoia.jpg,trees,graduated_high_school,NA,english,female,NA,trees,NA,3,1565985758366,1,This is a,1,These are both,bonsai,warmup1
276,NA,redwood,NA,NA,9,warmup/bonsai.jpg,redwood|sequoia,This is a,no,2,trees,elizabeth,bonsai,NA,yes,Please label the pictures below.,29,NA,NA,NA,warmup/sequoia.jpg,trees,graduated_high_school,NA,english,female,NA,trees,NA,3,1565985758366,2,This is a,1,These are both,bonsai,warmup1
276,Please rephrase your friend's comment.,NA,It is big relative to other,images/dog-parade-great-dane.png,9,NA,NA,NA,no,2,dogs2,elizabeth,NA,1,yes,Your friend points to another member of the group which you cannot see and says: <br/><b>That's a big one.</b>,29,dogs,NA,1,NA,NA,graduated_high_school,big,english,female,NA,NA,You and your friend see the following:,1,1565985758366,NA,NA,1,NA,NA,custom_main_text1
276,Please rephrase your friend's comment.,NA,It is small relative to other,images/tree-parade-bonsai.png,9,NA,NA,NA,no,2,trees,elizabeth,NA,1,yes,Your friend points to another member of the group which you cannot see and says: <br/><b>That's a small bonsai.</b>,29,bonsai,NA,0,NA,NA,graduated_high_school,small,english,female,NA,NA,You and your friend see the following:,2,1565985758366,NA,NA,1,NA,NA,custom_main_text1
276,Please rephrase your friend's comment.,NA,It is big relative to other,images/bird-parade-basic.png,9,NA,NA,NA,no,2,birds,elizabeth,NA,0,yes,Your friend points to another member of the group which you cannot see and says: <br/><b> That's a big one.</b>,29,birds,NA,1,NA,NA,graduated_high_school,big,english,female,NA,NA,You and your friend see the following:,3,1565985758366,NA,NA,1,NA,NA,custom_main_text1
276,NA,sword fish,NA,NA,9,warmup/goldfish.png,swordfish,This is a,no,2,fish,elizabeth,goldfish,NA,yes,Please label the pictures below.,29,NA,NA,NA,warmup/swordfish.jpg,fish,graduated_high_school,NA,english,female,NA,fish,NA,1,1565985758366,1,This is a,1,These are both,gold fish,warmup2
276,NA,swordfish,NA,NA,9,warmup/goldfish.png,swordfish,This is a,no,2,fish,elizabeth,goldfish,NA,yes,Please label the pictures below.,29,NA,NA,NA,warmup/swordfish.jpg,fish,graduated_high_school,NA,english,female,NA,fish,NA,1,1565985758366,2,This is a,1,These are both,goldfish,warmup2
276,NA,chiuaua,NA,NA,9,warmup/doberman.png,chihuahua,This is a,no,2,dogs,elizabeth,doberman,NA,yes,Please label the pictures below.,29,NA,NA,NA,warmup/chihuahua.jpg,dogs,graduated_high_school,NA,english,female,NA,dogs,NA,2,1565985758366,1,This is a,1,These are both,doberman,warmup2
276,NA,chihuahua,NA,NA,9,warmup/doberman.png,chihuahua,This is a,no,2,dogs,elizabeth,doberman,NA,yes,Please label the pictures below.,29,NA,NA,NA,warmup/chihuahua.jpg,dogs,graduated_high_school,NA,english,female,NA,dogs,NA,2,1565985758366,2,This is a,1,These are both,doberman,warmup2
276,NA,dandelion,NA,NA,9,warmup/sunflower.png,dandelion,This is a,no,2,flowers,elizabeth,sunflower,NA,yes,Please label the pictures below.,29,NA,NA,NA,warmup/dandelion.jpg,flowers,graduated_high_school,NA,english,female,NA,flowers,NA,3,1565985758366,1,This is a,1,These are both,sunflower,warmup2
276,Please rephrase your friend's comment.,NA,It is big relative to other,images/dog-parade-basic.png,9,NA,NA,NA,no,2,dogs1,elizabeth,NA,0,yes,Your friend points to another member of the group which you cannot see and says: <br/><b>That's a big one.</b>,29,dogs,NA,1,NA,NA,graduated_high_school,big,english,female,NA,NA,You and your friend see the following:,1,1565985758366,NA,NA,1,NA,NA,custom_main_text2
276,Please rephrase your friend's comment.,NA,It is small relative to other,images/flower-parade-dandelion.png,9,NA,NA,NA,no,2,flowers,elizabeth,NA,1,yes,Your friend points to another member of the group which you cannot see and says: <br/><b>That's a small dandelion.</b>,29,dandelion,NA,0,NA,NA,graduated_high_school,small,english,female,NA,NA,You and your friend see the following:,2,1565985758366,NA,NA,1,NA,NA,custom_main_text2
276,Please rephrase your friend's comment.,NA,It is small relative to other,images/fish-parade-basic.png,9,NA,NA,NA,no,2,fish,elizabeth,NA,0,yes,Your friend points to another member of the group which you cannot see and says: <br/><b>That's a small goldfish.</b>,29,fish,NA,0,NA,NA,graduated_high_school,small,english,female,NA,NA,You and your friend see the following:,3,1565985758366,NA,NA,1,NA,NA,custom_main_text2
275,NA,swordfish,NA,NA,9,warmup/goldfish.png,swordfish,This is a,no,1,fish,susan,goldfish,NA,yes,Please label the pictures below.,37,NA,NA,NA,warmup/swordfish.jpg,fish,graduated_college,NA,English,male,NA,fish,NA,1,1565985722101,1,This is a,1.25,These are both,goldfish,warmup1
275,NA,redwood,NA,NA,9,warmup/bonsai.jpg,redwood|sequoia,This is a,no,1,trees,susan,bonsai,NA,yes,Please label the pictures below.,37,NA,NA,NA,warmup/sequoia.jpg,threes,graduated_college,NA,English,male,NA,trees,NA,2,1565985722101,1,This is a,1.25,These are both,bonsai,warmup1
275,NA,redwood,NA,NA,9,warmup/bonsai.jpg,redwood|sequoia,This is a,no,1,trees,susan,bonsai,NA,yes,Please label the pictures below.,37,NA,NA,NA,warmup/sequoia.jpg,trees,graduated_college,NA,English,male,NA,trees,NA,2,1565985722101,2,This is a,1.25,These are both,bonsai,warmup1
275,NA,chihuahua,NA,NA,9,warmup/doberman.png,chihuahua,This is a,no,1,dogs,susan,doberman,NA,yes,Please label the pictures below.,37,NA,NA,NA,warmup/chihuahua.jpg,dogs,graduated_college,NA,English,male,NA,dogs,NA,3,1565985722101,1,This is a,1.25,These are both,rottweiler,warmup1
275,NA,chihuahua,NA,NA,9,warmup/doberman.png,chihuahua,This is a,no,1,dogs,susan,doberman,NA,yes,Please label the pictures below.,37,NA,NA,NA,warmup/chihuahua.jpg,dogs,graduated_college,NA,English,male,NA,dogs,NA,3,1565985722101,2,This is a,1.25,These are both,doberman,warmup1
275,Please rephrase your friend's comment.,NA,It is big relative to other,images/tree-parade-redwood.png,9,NA,NA,NA,no,1,trees,susan,NA,1,yes,Your friend points to another member of the group which you cannot see and says: <br/><b>That redwood is big.</b>,37,trees,NA,0,NA,NA,graduated_college,big,English,male,NA,NA,You and your friend see the following:,1,1565985722101,NA,NA,1.25,NA,NA,custom_main_text1
275,Please rephrase your friend's comment.,NA,It is small relative to other,images/dog-parade-chihuahua.png,9,NA,NA,NA,no,1,dogs1,susan,NA,1,yes,Your friend points to another member of the group which you cannot see and says: <br/><b>That chihuahua is small.</b>,37,dogs,NA,0,NA,NA,graduated_college,small,English,male,NA,NA,You and your friend see the following:,2,1565985722101,NA,NA,1.25,NA,NA,custom_main_text1
275,Please rephrase your friend's comment.,NA,It is small relative to other,images/fish-parade-basic.png,9,NA,NA,NA,no,1,fish,susan,NA,0,yes,Your friend points to another member of the group which you cannot see and says: <br/><b>That one is small.</b>,37,fish,NA,1,NA,NA,graduated_college,small,English,male,NA,NA,You and your friend see the following:,3,1565985722101,NA,NA,1.25,NA,NA,custom_main_text1
275,NA,dandelion,NA,NA,9,warmup/sunflower.png,dandelion,This is a,no,1,flowers,susan,sunflower,NA,yes,Please label the pictures below.,37,NA,NA,NA,warmup/dandelion.jpg,flowers,graduated_college,NA,English,male,NA,flowers,NA,1,1565985722101,1,This is a,1.25,These are both,sunflower,warmup2
275,NA,pug,NA,NA,9,warmup/great-dane.jpg,pug,This is a,no,1,dogs,susan,great dane,NA,yes,Please label the pictures below.,37,NA,NA,NA,warmup/pug.jpg,dogs,graduated_college,NA,English,male,NA,dogs,NA,2,1565985722101,1,This is a,1.25,These are both,great dane,warmup2
275,NA,hummingbird,NA,NA,9,warmup/eagle.jpg,hummingbird,This is a,no,1,birds,susan,eagle,NA,yes,Please label the pictures below.,37,NA,NA,NA,warmup/colibri.jpg,birds,graduated_college,NA,English,male,NA,birds,NA,3,1565985722101,1,This is an,1.25,These are both,eagle,warmup2
275,Please rephrase your friend's comment.,NA,It is big relative to other,images/flower-parade-basic.png,9,NA,NA,NA,no,1,flowers,susan,NA,0,yes,Your friend points to another member of the group which you cannot see and says: <br/><b>That one is big.</b>,37,flowers,NA,1,NA,NA,graduated_college,big,English,male,NA,NA,You and your friend see the following:,1,1565985722101,NA,NA,1.25,NA,NA,custom_main_text2
275,Please rephrase your friend's comment.,NA,It is big relative to other,images/bird-parade-basic.png,9,NA,NA,NA,no,1,birds,susan,NA,0,yes,Your friend points to another member of the group which you cannot see and says: <br/><b> That one is big.</b>,37,birds,NA,1,NA,NA,graduated_college,big,English,male,NA,NA,You and your friend see the following:,2,1565985722101,NA,NA,1.25,NA,NA,custom_main_text2
275,Please rephrase your friend's comment.,NA,It is small relative to other,images/dog-parade-pug.png,9,NA,NA,NA,no,1,dogs2,susan,NA,1,yes,Your friend points to another member of the group which you cannot see and says: <br/><b>That pug is small.</b>,37,dogs,NA,0,NA,NA,graduated_college,small,English,male,NA,NA,You and your friend see the following:,3,1565985722101,NA,NA,1.25,NA,NA,custom_main_text2
274,NA,pug,NA,NA,9,warmup/great-dane.jpg,pug,This is a,NA,2,dogs,barbara,great dane,NA,yes,Please label the pictures below.,27,NA,NA,NA,warmup/pug.jpg,dogs,graduated_college,NA,English,male,NA,dogs,NA,1,1565985633514,1,This is a,1,These are both,greyhound,warmup1
274,NA,pug,NA,NA,9,warmup/great-dane.jpg,pug,This is a,NA,2,dogs,barbara,great dane,NA,yes,Please label the pictures below.,27,NA,NA,NA,warmup/pug.jpg,dogs,graduated_college,NA,English,male,NA,dogs,NA,1,1565985633514,2,This is a,1,These are both,greyhound,warmup1
274,NA,pug,NA,NA,9,warmup/great-dane.jpg,pug,This is a,NA,2,dogs,barbara,great dane,NA,yes,Please label the pictures below.,27,NA,NA,NA,warmup/pug.jpg,dogs,graduated_college,NA,English,male,NA,dogs,NA,1,1565985633514,3,This is a,1,These are both,greyhound,warmup1
274,NA,pug,NA,NA,9,warmup/great-dane.jpg,pug,This is a,NA,2,dogs,barbara,great dane,NA,yes,Please label the pictures below.,27,NA,NA,NA,warmup/pug.jpg,dogs,graduated_college,NA,English,male,NA,dogs,NA,1,1565985633514,4,This is a,1,These are both,great dane,warmup1
274,NA,dandelion,NA,NA,9,warmup/sunflower.png,dandelion,This is a,NA,2,flowers,barbara,sunflower,NA,yes,Please label the pictures below.,27,NA,NA,NA,warmup/dandelion.jpg,flowers,graduated_college,NA,English,male,NA,flowers,NA,2,1565985633514,1,This is a,1,These are both,sunflower,warmup1
274,NA,maple,NA,NA,9,warmup/bonsai.jpg,redwood|sequoia,This is a,NA,2,trees,barbara,bonsai,NA,yes,Please label the pictures below.,27,NA,NA,NA,warmup/sequoia.jpg,tress,graduated_college,NA,English,male,NA,trees,NA,3,1565985633514,1,This is a,1,These are both,bonzai,warmup1
274,NA,redwood,NA,NA,9,warmup/bonsai.jpg,redwood|sequoia,This is a,NA,2,trees,barbara,bonsai,NA,yes,Please label the pictures below.,27,NA,NA,NA,warmup/sequoia.jpg,tress,graduated_college,NA,English,male,NA,trees,NA,3,1565985633514,2,This is a,1,These are both,bonsai,warmup1
274,NA,redwood,NA,NA,9,warmup/bonsai.jpg,redwood|sequoia,This is a,NA,2,trees,barbara,bonsai,NA,yes,Please label the pictures below.,27,NA,NA,NA,warmup/sequoia.jpg,tress,graduated_college,NA,English,male,NA,trees,NA,3,1565985633514,3,This is a,1,These are both,bonsai,warmup1
274,NA,redwood,NA,NA,9,warmup/bonsai.jpg,redwood|sequoia,This is a,NA,2,trees,barbara,bonsai,NA,yes,Please label the pictures below.,27,NA,NA,NA,warmup/sequoia.jpg,tress,graduated_college,NA,English,male,NA,trees,NA,3,1565985633514,4,This is a,1,These are both,bonsai,warmup1
274,NA,redwood,NA,NA,9,warmup/bonsai.jpg,redwood|sequoia,This is a,NA,2,trees,barbara,bonsai,NA,yes,Please label the pictures below.,27,NA,NA,NA,warmup/sequoia.jpg,tress,graduated_college,NA,English,male,NA,trees,NA,3,1565985633514,5,This is a,1,These are both,bonsai,warmup1
274,NA,redwood,NA,NA,9,warmup/bonsai.jpg,redwood|sequoia,This is a,NA,2,trees,barbara,bonsai,NA,yes,Please label the pictures below.,27,NA,NA,NA,warmup/sequoia.jpg,tress,graduated_college,NA,English,male,NA,trees,NA,3,1565985633514,6,This is a,1,These are both,bonsai,warmup1
274,NA,redwood,NA,NA,9,warmup/bonsai.jpg,redwood|sequoia,This is a,NA,2,trees,barbara,bonsai,NA,yes,Please label the pictures below.,27,NA,NA,NA,warmup/sequoia.jpg,tress,graduated_college,NA,English,male,NA,trees,NA,3,1565985633514,7,This is a,1,These are both,bonsai,warmup1
274,NA,redwood,NA,NA,9,warmup/bonsai.jpg,redwood|sequoia,This is a,NA,2,trees,barbara,bonsai,NA,yes,Please label the pictures below.,27,NA,NA,NA,warmup/sequoia.jpg,trees,graduated_college,NA,English,male,NA,trees,NA,3,1565985633514,8,This is a,1,These are both,bonsai,warmup1
274,Please rephrase your friend's comment.,NA,It is small relative to other,images/tree-parade-basic.png,9,NA,NA,NA,NA,2,trees,barbara,NA,0,yes,Your friend points to another member of the group which you cannot see and says: <br/><b>That bonsai is small.</b>,27,trees,NA,0,NA,NA,graduated_college,small,English,male,NA,NA,You and your friend see the following:,1,1565985633514,NA,NA,1,NA,NA,custom_main_text1
274,Please rephrase your friend's comment.,NA,It is big relative to other,images/dog-parade-great-dane.png,9,NA,NA,NA,NA,2,dogs2,barbara,NA,1,yes,Your friend points to another member of the group which you cannot see and says: <br/><b>That one is big.</b>,27,dogs,NA,1,NA,NA,graduated_college,big,English,male,NA,NA,You and your friend see the following:,2,1565985633514,NA,NA,1,NA,NA,custom_main_text1
274,Please rephrase your friend's comment.,NA,It is small relative to other,images/flower-parade-basic.png,9,NA,NA,NA,NA,2,flowers,barbara,NA,0,yes,Your friend points to another member of the group which you cannot see and says: <br/><b>That dandelion is small.</b>,27,flowers,NA,0,NA,NA,graduated_college,small,English,male,NA,NA,You and your friend see the following:,3,1565985633514,NA,NA,1,NA,NA,custom_main_text1
274,NA,chihuahua,NA,NA,9,warmup/doberman.png,chihuahua,This is a,NA,2,dogs,barbara,doberman,NA,yes,Please label the pictures below.,27,NA,NA,NA,warmup/chihuahua.jpg,dogs,graduated_college,NA,English,male,NA,dogs,NA,1,1565985633514,1,This is a,1,These are both,doberman,warmup2
274,NA,swordfish,NA,NA,9,warmup/goldfish.png,swordfish,This is a,NA,2,fish,barbara,goldfish,NA,yes,Please label the pictures below.,27,NA,NA,NA,warmup/swordfish.jpg,fish,graduated_college,NA,English,male,NA,fish,NA,2,1565985633514,1,This is a,1,These are both,goldfish,warmup2
274,NA,hummingbird,NA,NA,9,warmup/eagle.jpg,hummingbird,This is a,NA,2,birds,barbara,eagle,NA,yes,Please label the pictures below.,27,NA,NA,NA,warmup/colibri.jpg,birds,graduated_college,NA,English,male,NA,birds,NA,3,1565985633514,1,This is an,1,These are both,bald eagle,warmup2
274,NA,hummingbird,NA,NA,9,warmup/eagle.jpg,hummingbird,This is a,NA,2,birds,barbara,eagle,NA,yes,Please label the pictures below.,27,NA,NA,NA,warmup/colibri.jpg,birds,graduated_college,NA,English,male,NA,birds,NA,3,1565985633514,2,This is an,1,These are both,eagle,warmup2
274,Please rephrase your friend's comment.,NA,It is big relative to other,images/dog-parade-basic.png,9,NA,NA,NA,NA,2,dogs1,barbara,NA,0,yes,Your friend points to another member of the group which you cannot see and says: <br/><b>That one is big.</b>,27,dogs,NA,1,NA,NA,graduated_college,big,English,male,NA,NA,You and your friend see the following:,1,1565985633514,NA,NA,1,NA,NA,custom_main_text2
274,Please rephrase your friend's comment.,NA,It is big relative to other,images/bird-parade-eagle.png,9,NA,NA,NA,NA,2,birds,barbara,NA,1,yes,Your friend points to another member of the group which you cannot see and says: <br/><b> That eagle is big.</b>,27,birds,NA,0,NA,NA,graduated_college,big,English,male,NA,NA,You and your friend see the following:,2,1565985633514,NA,NA,1,NA,NA,custom_main_text2
274,Please rephrase your friend's comment.,NA,It is small relative to other,images/fish-parade-goldfish.png,9,NA,NA,NA,NA,2,fish,barbara,NA,1,yes,Your friend points to another member of the group which you cannot see and says: <br/><b>That one is small.</b>,27,fish,NA,1,NA,NA,graduated_college,small,English,male,NA,NA,You and your friend see the following:,3,1565985633514,NA,NA,1,NA,NA,custom_main_text2
273,NA,hummingbird,NA,NA,9,warmup/eagle.jpg,hummingbird,This is a,NA,2,birds,jessica,eagle,NA,yes,Please label the pictures below.,22,NA,NA,NA,warmup/colibri.jpg,birds,some_college,NA,English,female,NA,birds,NA,1,1565985620117,1,This is an,1,These are both,eagle,warmup1
273,NA,daisy,NA,NA,9,warmup/sunflower.png,dandelion,This is a,NA,2,flowers,jessica,sunflower,NA,yes,Please label the pictures below.,22,NA,NA,NA,warmup/dandelion.jpg,flowers,some_college,NA,English,female,NA,flowers,NA,2,1565985620117,1,This is a,1,These are both,sunflower,warmup1
273,NA,dandelion,NA,NA,9,warmup/sunflower.png,dandelion,This is a,NA,2,flowers,jessica,sunflower,NA,yes,Please label the pictures below.,22,NA,NA,NA,warmup/dandelion.jpg,flowers,some_college,NA,English,female,NA,flowers,NA,2,1565985620117,2,This is a,1,These are both,sunflower,warmup1
273,NA,swordfish,NA,NA,9,warmup/goldfish.png,swordfish,This is a,NA,2,fish,jessica,goldfish,NA,yes,Please label the pictures below.,22,NA,NA,NA,warmup/swordfish.jpg,fish,some_college,NA,English,female,NA,fish,NA,3,1565985620117,1,This is a,1,These are both,goldfish,warmup1
273,Please rephrase your friend's comment.,NA,It is big relative to other,images/bird-parade-eagle.png,9,NA,NA,NA,NA,2,birds,jessica,NA,1,yes,Your friend points to another member of the group which you cannot see and says: <br/><b> That's a big eagle.</b>,22,eagles,NA,0,NA,NA,some_college,big,English,female,NA,NA,You and your friend see the following:,1,1565985620117,NA,NA,1,NA,NA,custom_main_text1
273,Please rephrase your friend's comment.,NA,It is small relative to other,images/flower-parade-basic.png,9,NA,NA,NA,NA,2,flowers,jessica,NA,0,yes,Your friend points to another member of the group which you cannot see and says: <br/><b>That's a small dandelion.</b>,22,flowers,NA,0,NA,NA,some_college,small,English,female,NA,NA,You and your friend see the following:,2,1565985620117,NA,NA,1,NA,NA,custom_main_text1
273,Please rephrase your friend's comment.,NA,It is big relative to other,images/fish-parade-swordfish.png,9,NA,NA,NA,NA,2,fish,jessica,NA,1,yes,Your friend points to another member of the group which you cannot see and says: <br/><b>That's a big one.</b>,22,swordfish,NA,1,NA,NA,some_college,big,English,female,NA,NA,You and your friend see the following:,3,1565985620117,NA,NA,1,NA,NA,custom_main_text1
273,NA,oak tree,NA,NA,9,warmup/bonsai.jpg,redwood|sequoia,This is a,NA,2,trees,jessica,bonsai,NA,yes,Please label the pictures below.,22,NA,NA,NA,warmup/sequoia.jpg,tree,some_college,NA,English,female,NA,trees,NA,1,1565985620117,1,This is a,1,These are both,bonsai tree,warmup2
273,NA,redwood,NA,NA,9,warmup/bonsai.jpg,redwood|sequoia,This is a,NA,2,trees,jessica,bonsai,NA,yes,Please label the pictures below.,22,NA,NA,NA,warmup/sequoia.jpg,trees,some_college,NA,English,female,NA,trees,NA,1,1565985620117,2,This is a,1,These are both,bonsai,warmup2
273,NA,chihuahua,NA,NA,9,warmup/doberman.png,chihuahua,This is a,NA,2,dogs,jessica,doberman,NA,yes,Please label the pictures below.,22,NA,NA,NA,warmup/chihuahua.jpg,dogs,some_college,NA,English,female,NA,dogs,NA,2,1565985620117,1,This is a,1,These are both,great dane,warmup2
273,NA,chihuahua,NA,NA,9,warmup/doberman.png,chihuahua,This is a,NA,2,dogs,jessica,doberman,NA,yes,Please label the pictures below.,22,NA,NA,NA,warmup/chihuahua.jpg,dogs,some_college,NA,English,female,NA,dogs,NA,2,1565985620117,2,This is a,1,These are both,doberman,warmup2
273,NA,pug,NA,NA,9,warmup/great-dane.jpg,pug,This is a,NA,2,dogs,jessica,great dane,NA,yes,Please label the pictures below.,22,NA,NA,NA,warmup/pug.jpg,dogs,some_college,NA,English,female,NA,dogs,NA,3,1565985620117,1,This is a,1,These are both,great dane,warmup2
273,Please rephrase your friend's comment.,NA,It is big relative to other,images/dog-parade-basic2.png,9,NA,NA,NA,NA,2,dogs2,jessica,NA,0,yes,Your friend points to another member of the group which you cannot see and says: <br/><b>That's a big one.</b>,22,dogs,NA,1,NA,NA,some_college,big,English,female,NA,NA,You and your friend see the following:,1,1565985620117,NA,NA,1,NA,NA,custom_main_text2
273,Please rephrase your friend's comment.,NA,It is small relative to other,images/tree-parade-bonsai.png,9,NA,NA,NA,NA,2,trees,jessica,NA,1,yes,Your friend points to another member of the group which you cannot see and says: <br/><b>That's a small bonsai.</b>,22,bonsai,NA,0,NA,NA,some_college,small,English,female,NA,NA,You and your friend see the following:,2,1565985620117,NA,NA,1,NA,NA,custom_main_text2
273,Please rephrase your friend's comment.,NA,It is small relative to other,images/dog-parade-basic.png,9,NA,NA,NA,NA,2,dogs1,jessica,NA,0,yes,Your friend points to another member of the group which you cannot see and says: <br/><b>That's a small one.</b>,22,dogs,NA,1,NA,NA,some_college,small,English,female,NA,NA,You and your friend see the following:,3,1565985620117,NA,NA,1,NA,NA,custom_main_text2
272,NA,hummingbird,NA,NA,9,warmup/eagle.jpg,hummingbird,This is a,no,1,birds,mary,eagle,NA,yes,Please label the pictures below.,36,NA,"My biggest problem was knowing the specific names of the fish and dogs, other than that it was pretty much common sense.",NA,warmup/colibri.jpg,birds,graduated_college,NA,Englilsh,male,NA,birds,NA,1,1565985153826,1,This is an,1,These are both,eagle,warmup1
272,NA,marlin,NA,NA,9,warmup/goldfish.png,swordfish,This is a,no,1,fish,mary,goldfish,NA,yes,Please label the pictures below.,36,NA,"My biggest problem was knowing the specific names of the fish and dogs, other than that it was pretty much common sense.",NA,warmup/swordfish.jpg,fish,graduated_college,NA,Englilsh,male,NA,fish,NA,2,1565985153826,1,This is a,1,These are both,goldfish,warmup1
272,NA,swordfish,NA,NA,9,warmup/goldfish.png,swordfish,This is a,no,1,fish,mary,goldfish,NA,yes,Please label the pictures below.,36,NA,"My biggest problem was knowing the specific names of the fish and dogs, other than that it was pretty much common sense.",NA,warmup/swordfish.jpg,fish,graduated_college,NA,Englilsh,male,NA,fish,NA,2,1565985153826,2,This is a,1,These are both,goldfish,warmup1
272,NA,oak,NA,NA,9,warmup/bonsai.jpg,redwood|sequoia,This is a,no,1,trees,mary,bonsai,NA,yes,Please label the pictures below.,36,NA,"My biggest problem was knowing the specific names of the fish and dogs, other than that it was pretty much common sense.",NA,warmup/sequoia.jpg,trees,graduated_college,NA,Englilsh,male,NA,trees,NA,3,1565985153826,1,This is a,1,These are both,tree,warmup1
272,NA,redwood,NA,NA,9,warmup/bonsai.jpg,redwood|sequoia,This is a,no,1,trees,mary,bonsai,NA,yes,Please label the pictures below.,36,NA,"My biggest problem was knowing the specific names of the fish and dogs, other than that it was pretty much common sense.",NA,warmup/sequoia.jpg,trees,graduated_college,NA,Englilsh,male,NA,trees,NA,3,1565985153826,2,This is a,1,These are both,bonsai,warmup1
272,Please rephrase your friend's comment.,NA,It is small relative to other,images/fish-parade-goldfish.png,9,NA,NA,NA,no,1,fish,mary,NA,1,yes,Your friend points to another member of the group which you cannot see and says: <br/><b>That one is small.</b>,36,goldfish,"My biggest problem was knowing the specific names of the fish and dogs, other than that it was pretty much common sense.",1,NA,NA,graduated_college,small,Englilsh,male,NA,NA,You and your friend see the following:,1,1565985153826,NA,NA,1,NA,NA,custom_main_text1
272,Please rephrase your friend's comment.,NA,It is small relative to other,images/tree-parade-basic.png,9,NA,NA,NA,no,1,trees,mary,NA,0,yes,Your friend points to another member of the group which you cannot see and says: <br/><b>That one is small.</b>,36,trees,"My biggest problem was knowing the specific names of the fish and dogs, other than that it was pretty much common sense.",1,NA,NA,graduated_college,small,Englilsh,male,NA,NA,You and your friend see the following:,2,1565985153826,NA,NA,1,NA,NA,custom_main_text1
272,Please rephrase your friend's comment.,NA,It is big relative to other,images/bird-parade-eagle.png,9,NA,NA,NA,no,1,birds,mary,NA,1,yes,Your friend points to another member of the group which you cannot see and says: <br/><b> That eagle is big.</b>,36,eagles,"My biggest problem was knowing the specific names of the fish and dogs, other than that it was pretty much common sense.",0,NA,NA,graduated_college,big,Englilsh,male,NA,NA,You and your friend see the following:,3,1565985153826,NA,NA,1,NA,NA,custom_main_text1
272,NA,diandilion,NA,NA,9,warmup/sunflower.png,dandelion,This is a,no,1,flowers,mary,sunflower,NA,yes,Please label the pictures below.,36,NA,"My biggest problem was knowing the specific names of the fish and dogs, other than that it was pretty much common sense.",NA,warmup/dandelion.jpg,flowers,graduated_college,NA,Englilsh,male,NA,flowers,NA,1,1565985153826,1,This is a,1,These are both,sunflower,warmup2
272,NA,dandelion,NA,NA,9,warmup/sunflower.png,dandelion,This is a,no,1,flowers,mary,sunflower,NA,yes,Please label the pictures below.,36,NA,"My biggest problem was knowing the specific names of the fish and dogs, other than that it was pretty much common sense.",NA,warmup/dandelion.jpg,flowers,graduated_college,NA,Englilsh,male,NA,flowers,NA,1,1565985153826,2,This is a,1,These are both,sunflower,warmup2
272,NA,poodle,NA,NA,9,warmup/great-dane.jpg,pug,This is a,no,1,dogs,mary,great dane,NA,yes,Please label the pictures below.,36,NA,"My biggest problem was knowing the specific names of the fish and dogs, other than that it was pretty much common sense.",NA,warmup/pug.jpg,dogs,graduated_college,NA,Englilsh,male,NA,dogs,NA,2,1565985153826,1,This is a,1,These are both,lab,warmup2
272,NA,pug,NA,NA,9,warmup/great-dane.jpg,pug,This is a,no,1,dogs,mary,great dane,NA,yes,Please label the pictures below.,36,NA,"My biggest problem was knowing the specific names of the fish and dogs, other than that it was pretty much common sense.",NA,warmup/pug.jpg,dogs,graduated_college,NA,Englilsh,male,NA,dogs,NA,2,1565985153826,2,This is a,1,These are both,great dane,warmup2
272,NA,poodle,NA,NA,9,warmup/doberman.png,chihuahua,This is a,no,1,dogs,mary,doberman,NA,yes,Please label the pictures below.,36,NA,"My biggest problem was knowing the specific names of the fish and dogs, other than that it was pretty much common sense.",NA,warmup/chihuahua.jpg,dogs,graduated_college,NA,Englilsh,male,NA,dogs,NA,3,1565985153826,1,This is a,1,These are both,terrier,warmup2
272,NA,chihuhua,NA,NA,9,warmup/doberman.png,chihuahua,This is a,no,1,dogs,mary,doberman,NA,yes,Please label the pictures below.,36,NA,"My biggest problem was knowing the specific names of the fish and dogs, other than that it was pretty much common sense.",NA,warmup/chihuahua.jpg,dogs,graduated_college,NA,Englilsh,male,NA,dogs,NA,3,1565985153826,2,This is a,1,These are both,doberman,warmup2
272,NA,chihuahua,NA,NA,9,warmup/doberman.png,chihuahua,This is a,no,1,dogs,mary,doberman,NA,yes,Please label the pictures below.,36,NA,"My biggest problem was knowing the specific names of the fish and dogs, other than that it was pretty much common sense.",NA,warmup/chihuahua.jpg,dogs,graduated_college,NA,Englilsh,male,NA,dogs,NA,3,1565985153826,3,This is a,1,These are both,doberman,warmup2
272,Please rephrase your friend's comment.,NA,It is small relative to other,images/dog-parade-basic2.png,9,NA,NA,NA,no,1,dogs2,mary,NA,0,yes,Your friend points to another member of the group which you cannot see and says: <br/><b>That pug is small.</b>,36,dogs,"My biggest problem was knowing the specific names of the fish and dogs, other than that it was pretty much common sense.",0,NA,NA,graduated_college,small,Englilsh,male,NA,NA,You and your friend see the following:,1,1565985153826,NA,NA,1,NA,NA,custom_main_text2
272,Please rephrase your friend's comment.,NA,It is big relative to other,images/dog-parade-doberman.png,9,NA,NA,NA,no,1,dogs1,mary,NA,1,yes,Your friend points to another member of the group which you cannot see and says: <br/><b>That one is big.</b>,36,dogs,"My biggest problem was knowing the specific names of the fish and dogs, other than that it was pretty much common sense.",1,NA,NA,graduated_college,big,Englilsh,male,NA,NA,You and your friend see the following:,2,1565985153826,NA,NA,1,NA,NA,custom_main_text2
272,Please rephrase your friend's comment.,NA,It is big relative to other,images/flower-parade-basic.png,9,NA,NA,NA,no,1,flowers,mary,NA,0,yes,Your friend points to another member of the group which you cannot see and says: <br/><b>That sunflower is big.</b>,36,flowers,"My biggest problem was knowing the specific names of the fish and dogs, other than that it was pretty much common sense.",0,NA,NA,graduated_college,big,Englilsh,male,NA,NA,You and your friend see the following:,3,1565985153826,NA,NA,1,NA,NA,custom_main_text2
271,NA,little dog,NA,NA,9,warmup/doberman.png,chihuahua,This is a,NA,0,dogs,Elizabeth,doberman,NA,yes,Please label the pictures below.,37,NA,NA,NA,warmup/chihuahua.jpg,dogs,graduated_college,NA,english,female,NA,dogs,NA,1,1565984706725,1,This is a,1,These are both,doberman,warmup1
271,NA,chihuahua,NA,NA,9,warmup/doberman.png,chihuahua,This is a,NA,0,dogs,Elizabeth,doberman,NA,yes,Please label the pictures below.,37,NA,NA,NA,warmup/chihuahua.jpg,dogs,graduated_college,NA,english,female,NA,dogs,NA,1,1565984706725,2,This is a,1,These are both,doberman,warmup1
271,NA,shark,NA,NA,9,warmup/goldfish.png,swordfish,This is a,NA,0,fish,Elizabeth,goldfish,NA,yes,Please label the pictures below.,37,NA,NA,NA,warmup/swordfish.jpg,sea creatures,graduated_college,NA,english,female,NA,fish,NA,2,1565984706725,1,This is a,1,These are both,goldfish,warmup1
271,NA,shark,NA,NA,9,warmup/goldfish.png,swordfish,This is a,NA,0,fish,Elizabeth,goldfish,NA,yes,Please label the pictures below.,37,NA,NA,NA,warmup/swordfish.jpg,sea creatures,graduated_college,NA,english,female,NA,fish,NA,2,1565984706725,2,This is a,1,These are both,fish,warmup1
271,NA,shark,NA,NA,9,warmup/goldfish.png,swordfish,This is a,NA,0,fish,Elizabeth,goldfish,NA,yes,Please label the pictures below.,37,NA,NA,NA,warmup/swordfish.jpg,fish,graduated_college,NA,english,female,NA,fish,NA,2,1565984706725,3,This is a,1,These are both,goldfish,warmup1
271,NA,shark,NA,NA,9,warmup/goldfish.png,swordfish,This is a,NA,0,fish,Elizabeth,goldfish,NA,yes,Please label the pictures below.,37,NA,NA,NA,warmup/swordfish.jpg,fish,graduated_college,NA,english,female,NA,fish,NA,2,1565984706725,4,This is a,1,These are both,goldfish,warmup1
271,NA,swordfish,NA,NA,9,warmup/goldfish.png,swordfish,This is a,NA,0,fish,Elizabeth,goldfish,NA,yes,Please label the pictures below.,37,NA,NA,NA,warmup/swordfish.jpg,fish,graduated_college,NA,english,female,NA,fish,NA,2,1565984706725,5,This is a,1,These are both,goldfish,warmup1
271,NA,daffoldil,NA,NA,9,warmup/sunflower.png,dandelion,This is a,NA,0,flowers,Elizabeth,sunflower,NA,yes,Please label the pictures below.,37,NA,NA,NA,warmup/dandelion.jpg,flowers,graduated_college,NA,english,female,NA,flowers,NA,3,1565984706725,1,This is a,1,These are both,sunflower,warmup1
271,NA,dandelion,NA,NA,9,warmup/sunflower.png,dandelion,This is a,NA,0,flowers,Elizabeth,sunflower,NA,yes,Please label the pictures below.,37,NA,NA,NA,warmup/dandelion.jpg,flowers,graduated_college,NA,english,female,NA,flowers,NA,3,1565984706725,2,This is a,1,These are both,sunflower,warmup1
271,Please rephrase your friend's comment.,NA,It is small relative to other,images/dog-parade-basic.png,9,NA,NA,NA,NA,0,dogs1,Elizabeth,NA,0,yes,Your friend points to another member of the group which you cannot see and says: <br/><b>That's a small chihuahua.</b>,37,dogs,NA,0,NA,NA,graduated_college,small,english,female,NA,NA,You and your friend see the following:,1,1565984706725,NA,NA,1,NA,NA,custom_main_text1
271,Please rephrase your friend's comment.,NA,It is big relative to other,images/fish-parade-basic.png,9,NA,NA,NA,NA,0,fish,Elizabeth,NA,0,yes,Your friend points to another member of the group which you cannot see and says: <br/><b>That's a big swordfish.</b>,37,fish,NA,0,NA,NA,graduated_college,big,english,female,NA,NA,You and your friend see the following:,2,1565984706725,NA,NA,1,NA,NA,custom_main_text1
271,Please rephrase your friend's comment.,NA,It is big relative to other,images/flower-parade-sunflower.png,9,NA,NA,NA,NA,0,flowers,Elizabeth,NA,1,yes,Your friend points to another member of the group which you cannot see and says: <br/><b>That's a big one.</b>,37,flowers,NA,1,NA,NA,graduated_college,big,english,female,NA,NA,You and your friend see the following:,3,1565984706725,NA,NA,1,NA,NA,custom_main_text1
271,NA,hummingbird,NA,NA,9,warmup/eagle.jpg,hummingbird,This is a,NA,0,birds,Elizabeth,eagle,NA,yes,Please label the pictures below.,37,NA,NA,NA,warmup/colibri.jpg,birds,graduated_college,NA,english,female,NA,birds,NA,1,1565984706725,1,This is an,1,These are both,eagle,warmup2
271,NA,pine tree,NA,NA,9,warmup/bonsai.jpg,redwood|sequoia,This is a,NA,0,trees,Elizabeth,bonsai,NA,yes,Please label the pictures below.,37,NA,NA,NA,warmup/sequoia.jpg,trees,graduated_college,NA,english,female,NA,trees,NA,2,1565984706725,1,This is a,1,These are both,bonsai,warmup2
271,NA,redwood,NA,NA,9,warmup/bonsai.jpg,redwood|sequoia,This is a,NA,0,trees,Elizabeth,bonsai,NA,yes,Please label the pictures below.,37,NA,NA,NA,warmup/sequoia.jpg,trees,graduated_college,NA,english,female,NA,trees,NA,2,1565984706725,2,This is a,1,These are both,bonsai,warmup2
271,NA,bulldog,NA,NA,9,warmup/great-dane.jpg,pug,This is a,NA,0,dogs,Elizabeth,great dane,NA,yes,Please label the pictures below.,37,NA,NA,NA,warmup/pug.jpg,dogs,graduated_college,NA,english,female,NA,dogs,NA,3,1565984706725,1,This is a,1,These are both,greyhound,warmup2
271,NA,pug,NA,NA,9,warmup/great-dane.jpg,pug,This is a,NA,0,dogs,Elizabeth,great dane,NA,yes,Please label the pictures below.,37,NA,NA,NA,warmup/pug.jpg,dogs,graduated_college,NA,english,female,NA,dogs,NA,3,1565984706725,2,This is a,1,These are both,greyhound,warmup2
271,NA,pug,NA,NA,9,warmup/great-dane.jpg,pug,This is a,NA,0,dogs,Elizabeth,great dane,NA,yes,Please label the pictures below.,37,NA,NA,NA,warmup/pug.jpg,dogs,graduated_college,NA,english,female,NA,dogs,NA,3,1565984706725,3,This is a,1,These are both,great dane,warmup2
271,Please rephrase your friend's comment.,NA,It is small relative to other,images/dog-parade-pug.png,9,NA,NA,NA,NA,0,dogs2,Elizabeth,NA,1,yes,Your friend points to another member of the group which you cannot see and says: <br/><b>That's a small pug.</b>,37,pugs,NA,0,NA,NA,graduated_college,small,english,female,NA,NA,You and your friend see the following:,1,1565984706725,NA,NA,1,NA,NA,custom_main_text2
271,Please rephrase your friend's comment.,NA,It is small relative to other,images/bird-parade-hummingbird.png,9,NA,NA,NA,NA,0,birds,Elizabeth,NA,1,yes,Your friend points to another member of the group which you cannot see and says: <br/><b> That's a small one.</b>,37,birds,NA,1,NA,NA,graduated_college,small,english,female,NA,NA,You and your friend see the following:,2,1565984706725,NA,NA,1,NA,NA,custom_main_text2
271,Please rephrase your friend's comment.,NA,It is big relative to other,images/tree-parade-basic.png,9,NA,NA,NA,NA,0,trees,Elizabeth,NA,0,yes,Your friend points to another member of the group which you cannot see and says: <br/><b>That's a big one.</b>,37,trees,NA,1,NA,NA,graduated_college,big,english,female,NA,NA,You and your friend see the following:,3,1565984706725,NA,NA,1,NA,NA,custom_main_text2
270,NA,swordfish,NA,NA,9,warmup/goldfish.png,swordfish,This is a,no problems whatsoever :),2,fish,linda,goldfish,NA,yes,Please label the pictures below.,29,NA,Thank you for the opportunity to participate in this study. I look forward to any future encounters we may have and wish you the very best of luck with this study. I hope you have a wonderful day.,NA,warmup/swordfish.jpg,fish,graduated_high_school,NA,English,male,NA,fish,NA,1,1565984090176,1,This is a,2,These are both,goldfish,warmup1
270,NA,hummingbird,NA,NA,9,warmup/eagle.jpg,hummingbird,This is a,no problems whatsoever :),2,birds,linda,eagle,NA,yes,Please label the pictures below.,29,NA,Thank you for the opportunity to participate in this study. I look forward to any future encounters we may have and wish you the very best of luck with this study. I hope you have a wonderful day.,NA,warmup/colibri.jpg,birds,graduated_high_school,NA,English,male,NA,birds,NA,2,1565984090176,1,This is an,2,These are both,eagle,warmup1
270,NA,pug,NA,NA,9,warmup/great-dane.jpg,pug,This is a,no problems whatsoever :),2,dogs,linda,great dane,NA,yes,Please label the pictures below.,29,NA,Thank you for the opportunity to participate in this study. I look forward to any future encounters we may have and wish you the very best of luck with this study. I hope you have a wonderful day.,NA,warmup/pug.jpg,dogs,graduated_high_school,NA,English,male,NA,dogs,NA,3,1565984090176,1,This is a,2,These are both,labrador,warmup1
270,NA,pug,NA,NA,9,warmup/great-dane.jpg,pug,This is a,no problems whatsoever :),2,dogs,linda,great dane,NA,yes,Please label the pictures below.,29,NA,Thank you for the opportunity to participate in this study. I look forward to any future encounters we may have and wish you the very best of luck with this study. I hope you have a wonderful day.,NA,warmup/pug.jpg,dogs,graduated_high_school,NA,English,male,NA,dogs,NA,3,1565984090176,2,This is a,2,These are both,great dane,warmup1
270,Please rephrase your friend's comment.,NA,It is big relative to other,images/dog-parade-basic2.png,9,NA,NA,NA,no problems whatsoever :),2,dogs2,linda,NA,0,yes,Your friend points to another member of the group which you cannot see and says: <br/><b>That one is big.</b>,29,dogs,Thank you for the opportunity to participate in this study. I look forward to any future encounters we may have and wish you the very best of luck with this study. I hope you have a wonderful day.,1,NA,NA,graduated_high_school,big,English,male,NA,NA,You and your friend see the following:,1,1565984090176,NA,NA,2,NA,NA,custom_main_text1
270,Please rephrase your friend's comment.,NA,It is big relative to other,images/fish-parade-swordfish.png,9,NA,NA,NA,no problems whatsoever :),2,fish,linda,NA,1,yes,Your friend points to another member of the group which you cannot see and says: <br/><b>That swordfish is big.</b>,29,swordfish,Thank you for the opportunity to participate in this study. I look forward to any future encounters we may have and wish you the very best of luck with this study. I hope you have a wonderful day.,0,NA,NA,graduated_high_school,big,English,male,NA,NA,You and your friend see the following:,2,1565984090176,NA,NA,2,NA,NA,custom_main_text1
270,Please rephrase your friend's comment.,NA,It is small relative to other,images/bird-parade-basic.png,9,NA,NA,NA,no problems whatsoever :),2,birds,linda,NA,0,yes,Your friend points to another member of the group which you cannot see and says: <br/><b> That one is small.</b>,29,eagles,Thank you for the opportunity to participate in this study. I look forward to any future encounters we may have and wish you the very best of luck with this study. I hope you have a wonderful day.,1,NA,NA,graduated_high_school,small,English,male,NA,NA,You and your friend see the following:,3,1565984090176,NA,NA,2,NA,NA,custom_main_text1
270,NA,Tree,NA,NA,9,warmup/bonsai.jpg,redwood|sequoia,This is a,no problems whatsoever :),2,trees,linda,bonsai,NA,yes,Please label the pictures below.,29,NA,Thank you for the opportunity to participate in this study. I look forward to any future encounters we may have and wish you the very best of luck with this study. I hope you have a wonderful day.,NA,warmup/sequoia.jpg,plants,graduated_high_school,NA,English,male,NA,trees,NA,1,1565984090176,1,This is a,2,These are both,sapling,warmup2
270,NA,redwood,NA,NA,9,warmup/bonsai.jpg,redwood|sequoia,This is a,no problems whatsoever :),2,trees,linda,bonsai,NA,yes,Please label the pictures below.,29,NA,Thank you for the opportunity to participate in this study. I look forward to any future encounters we may have and wish you the very best of luck with this study. I hope you have a wonderful day.,NA,warmup/sequoia.jpg,tree,graduated_high_school,NA,English,male,NA,trees,NA,1,1565984090176,2,This is a,2,These are both,bonsai,warmup2
270,NA,redwood,NA,NA,9,warmup/bonsai.jpg,redwood|sequoia,This is a,no problems whatsoever :),2,trees,linda,bonsai,NA,yes,Please label the pictures below.,29,NA,Thank you for the opportunity to participate in this study. I look forward to any future encounters we may have and wish you the very best of luck with this study. I hope you have a wonderful day.,NA,warmup/sequoia.jpg,trees,graduated_high_school,NA,English,male,NA,trees,NA,1,1565984090176,3,This is a,2,These are both,bonsai,warmup2
270,NA,Chihuahua,NA,NA,9,warmup/doberman.png,chihuahua,This is a,no problems whatsoever :),2,dogs,linda,doberman,NA,yes,Please label the pictures below.,29,NA,Thank you for the opportunity to participate in this study. I look forward to any future encounters we may have and wish you the very best of luck with this study. I hope you have a wonderful day.,NA,warmup/chihuahua.jpg,dogs,graduated_high_school,NA,English,male,NA,dogs,NA,2,1565984090176,1,This is a,2,These are both,Doberman,warmup2
270,NA,dandelion,NA,NA,9,warmup/sunflower.png,dandelion,This is a,no problems whatsoever :),2,flowers,linda,sunflower,NA,yes,Please label the pictures below.,29,NA,Thank you for the opportunity to participate in this study. I look forward to any future encounters we may have and wish you the very best of luck with this study. I hope you have a wonderful day.,NA,warmup/dandelion.jpg,flowers,graduated_high_school,NA,English,male,NA,flowers,NA,3,1565984090176,1,This is a,2,These are both,sunflower,warmup2
270,Please rephrase your friend's comment.,NA,It is big relative to other,images/tree-parade-basic.png,9,NA,NA,NA,no problems whatsoever :),2,trees,linda,NA,0,yes,Your friend points to another member of the group which you cannot see and says: <br/><b>That redwood is big.</b>,29,trees,Thank you for the opportunity to participate in this study. I look forward to any future encounters we may have and wish you the very best of luck with this study. I hope you have a wonderful day.,0,NA,NA,graduated_high_school,big,English,male,NA,NA,You and your friend see the following:,1,1565984090176,NA,NA,2,NA,NA,custom_main_text2
270,Please rephrase your friend's comment.,NA,It is small relative to other,images/dog-parade-chihuahua.png,9,NA,NA,NA,no problems whatsoever :),2,dogs1,linda,NA,1,yes,Your friend points to another member of the group which you cannot see and says: <br/><b>That one is small.</b>,29,dogs,Thank you for the opportunity to participate in this study. I look forward to any future encounters we may have and wish you the very best of luck with this study. I hope you have a wonderful day.,1,NA,NA,graduated_high_school,small,English,male,NA,NA,You and your friend see the following:,2,1565984090176,NA,NA,2,NA,NA,custom_main_text2
270,Please rephrase your friend's comment.,NA,It is small relative to other,images/flower-parade-dandelion.png,9,NA,NA,NA,no problems whatsoever :),2,flowers,linda,NA,1,yes,Your friend points to another member of the group which you cannot see and says: <br/><b>That dandelion is small.</b>,29,flowers,Thank you for the opportunity to participate in this study. I look forward to any future encounters we may have and wish you the very best of luck with this study. I hope you have a wonderful day.,0,NA,NA,graduated_high_school,small,English,male,NA,NA,You and your friend see the following:,3,1565984090176,NA,NA,2,NA,NA,custom_main_text2
269,NA,pug,NA,NA,9,warmup/great-dane.jpg,pug,This is a,NA,1,dogs,jessica,great dane,NA,yes,Please label the pictures below.,51,NA,NA,NA,warmup/pug.jpg,dogs,some_college,NA,english,male,NA,dogs,NA,1,1565984256613,1,This is a,0.75,These are both,great dane,warmup1
269,NA,dafodile,NA,NA,9,warmup/sunflower.png,dandelion,This is a,NA,1,flowers,jessica,sunflower,NA,yes,Please label the pictures below.,51,NA,NA,NA,warmup/dandelion.jpg,flowers,some_college,NA,english,male,NA,flowers,NA,2,1565984256613,1,This is a,0.75,These are both,sunflower,warmup1
269,NA,dandelion,NA,NA,9,warmup/sunflower.png,dandelion,This is a,NA,1,flowers,jessica,sunflower,NA,yes,Please label the pictures below.,51,NA,NA,NA,warmup/dandelion.jpg,flowers,some_college,NA,english,male,NA,flowers,NA,2,1565984256613,2,This is a,0.75,These are both,sunflower,warmup1
269,NA,chihuahua,NA,NA,9,warmup/doberman.png,chihuahua,This is a,NA,1,dogs,jessica,doberman,NA,yes,Please label the pictures below.,51,NA,NA,NA,warmup/chihuahua.jpg,dogs,some_college,NA,english,male,NA,dogs,NA,3,1565984256613,1,This is a,0.75,These are both,doberman,warmup1
269,Please rephrase your friend's comment.,NA,It is big relative to other,images/dog-parade-basic.png,9,NA,NA,NA,NA,1,dogs1,jessica,NA,0,yes,Your friend points to another member of the group which you cannot see and says: <br/><b>That's a big one.</b>,51,dogs,NA,1,NA,NA,some_college,big,english,male,NA,NA,You and your friend see the following:,1,1565984256613,NA,NA,0.75,NA,NA,custom_main_text1
269,Please rephrase your friend's comment.,NA,It is small relative to other,images/flower-parade-dandelion.png,9,NA,NA,NA,NA,1,flowers,jessica,NA,1,yes,Your friend points to another member of the group which you cannot see and says: <br/><b>That's a small dandelion.</b>,51,dandelions,NA,0,NA,NA,some_college,small,english,male,NA,NA,You and your friend see the following:,2,1565984256613,NA,NA,0.75,NA,NA,custom_main_text1
269,Please rephrase your friend's comment.,NA,It is small relative to other,images/dog-parade-pug.png,9,NA,NA,NA,NA,1,dogs2,jessica,NA,1,yes,Your friend points to another member of the group which you cannot see and says: <br/><b>That's a small pug.</b>,51,pugs,NA,0,NA,NA,some_college,small,english,male,NA,NA,You and your friend see the following:,3,1565984256613,NA,NA,0.75,NA,NA,custom_main_text1
269,NA,hummingbird,NA,NA,9,warmup/eagle.jpg,hummingbird,This is a,NA,1,birds,jessica,eagle,NA,yes,Please label the pictures below.,51,NA,NA,NA,warmup/colibri.jpg,birds,some_college,NA,english,male,NA,birds,NA,1,1565984256613,1,This is an,0.75,These are both,eagle,warmup2
269,NA,swordfish,NA,NA,9,warmup/goldfish.png,swordfish,This is a,NA,1,fish,jessica,goldfish,NA,yes,Please label the pictures below.,51,NA,NA,NA,warmup/swordfish.jpg,fish,some_college,NA,english,male,NA,fish,NA,2,1565984256613,1,This is a,0.75,These are both,minnow,warmup2
269,NA,swordfish,NA,NA,9,warmup/goldfish.png,swordfish,This is a,NA,1,fish,jessica,goldfish,NA,yes,Please label the pictures below.,51,NA,NA,NA,warmup/swordfish.jpg,fish,some_college,NA,english,male,NA,fish,NA,2,1565984256613,2,This is a,0.75,These are both,goldfish,warmup2
269,NA,redwood,NA,NA,9,warmup/bonsai.jpg,redwood|sequoia,This is a,NA,1,trees,jessica,bonsai,NA,yes,Please label the pictures below.,51,NA,NA,NA,warmup/sequoia.jpg,trees,some_college,NA,english,male,NA,trees,NA,3,1565984256613,1,This is a,0.75,These are both,bonsai,warmup2
269,Please rephrase your friend's comment.,NA,It is small relative to other,images/tree-parade-bonsai.png,9,NA,NA,NA,NA,1,trees,jessica,NA,1,yes,Your friend points to another member of the group which you cannot see and says: <br/><b>That's a small bonsai.</b>,51,bonsai trees,NA,0,NA,NA,some_college,small,english,male,NA,NA,You and your friend see the following:,1,1565984256613,NA,NA,0.75,NA,NA,custom_main_text2
269,Please rephrase your friend's comment.,NA,It is big relative to other,images/bird-parade-basic.png,9,NA,NA,NA,NA,1,birds,jessica,NA,0,yes,Your friend points to another member of the group which you cannot see and says: <br/><b> That's a big one.</b>,51,birds,NA,1,NA,NA,some_college,big,english,male,NA,NA,You and your friend see the following:,2,1565984256613,NA,NA,0.75,NA,NA,custom_main_text2
269,Please rephrase your friend's comment.,NA,It is big relative to other,images/fish-parade-basic.png,9,NA,NA,NA,NA,1,fish,jessica,NA,0,yes,Your friend points to another member of the group which you cannot see and says: <br/><b>That's a big one.</b>,51,fish,NA,1,NA,NA,some_college,big,english,male,NA,NA,You and your friend see the following:,3,1565984256613,NA,NA,0.75,NA,NA,custom_main_text2
