submission_id,question,response1,sentence_left,context_picture,experiment_id,picture2,correct1,question1,problems,enjoyment,item,botresponse,trials,correct2,pic_spec,understand,text,condition,sentence,age,response,comments,ref_spec,picture1,response3,education,target_size,name,languages,sex,RT,correct3,context,trial_number,startTime,attempts,question3,fairprice,question2,response2,correct,adj_cond,trial_name
581,<i>What do you think Speaker A meant? </i>,NA,The Empire State Building is tall relative to other,NA,13,NA,NA,NA,no,2,NA,sarah,1,NA,NA,NA,NA,NA,"<b> Speaker A: ""The Empire State Building is tall.""</b>",32,building,NA,NA,NA,NA,graduated_college,NA,comp_class_warmup,english,male,NA,NA,In the main trials you will be asked to rephrase something a person said. The utterance will contain a word that is <i>relative</i> and your task is to figure out what it is relative to. <br /> <br /> For example: <br /><br />,1,1571236732868,1,NA,5,NA,NA,"buildings, scyscrapers, houses, constructions (choose one)",NA,comp_class_warmup
581,NA,insect,NA,NA,13,warmup/eagle.jpg,hummingbird,This is a,no,2,birds,sarah,NA,eagle,NA,NA,Please label the pictures below.,NA,NA,32,NA,NA,NA,warmup/colibri.jpg,birds,graduated_college,NA,NA,english,male,NA,birds,NA,1,1571236732868,1,This is an,5,These are both,eagle,NA,NA,warmup1
581,NA,hummingbird,NA,NA,13,warmup/eagle.jpg,hummingbird,This is a,no,2,birds,sarah,NA,eagle,NA,NA,Please label the pictures below.,NA,NA,32,NA,NA,NA,warmup/colibri.jpg,birds,graduated_college,NA,NA,english,male,NA,birds,NA,1,1571236732868,2,This is an,5,These are both,eagle,NA,NA,warmup1
581,NA,puppy,NA,NA,13,warmup/great-dane.jpg,pug,This is a,no,2,dogs,sarah,NA,great dane,NA,NA,Please label the pictures below.,NA,NA,32,NA,NA,NA,warmup/pug.jpg,animals,graduated_college,NA,NA,english,male,NA,dogs,NA,2,1571236732868,1,This is a,5,These are both,dogg,NA,NA,warmup1
581,NA,pug,NA,NA,13,warmup/great-dane.jpg,pug,This is a,no,2,dogs,sarah,NA,great dane,NA,NA,Please label the pictures below.,NA,NA,32,NA,NA,NA,warmup/pug.jpg,dogs,graduated_college,NA,NA,english,male,NA,dogs,NA,2,1571236732868,2,This is a,5,These are both,great dane,NA,NA,warmup1
581,NA,pug,NA,NA,13,warmup/doberman.png,chihuahua,This is a,no,2,dogs,sarah,NA,doberman,NA,NA,Please label the pictures below.,NA,NA,32,NA,NA,NA,warmup/chihuahua.jpg,dogs,graduated_college,NA,NA,english,male,NA,dogs,NA,3,1571236732868,1,This is a,5,These are both,doberman,NA,NA,warmup1
581,NA,chihuahua,NA,NA,13,warmup/doberman.png,chihuahua,This is a,no,2,dogs,sarah,NA,doberman,NA,NA,Please label the pictures below.,NA,NA,32,NA,NA,NA,warmup/chihuahua.jpg,dogs,graduated_college,NA,NA,english,male,NA,dogs,NA,3,1571236732868,2,This is a,5,These are both,doberman,NA,NA,warmup1
581,What do you think your friend meant?,NA,It is big relative to other,images/dog-parade-basic.png,13,NA,NA,NA,no,2,dogs1,sarah,NA,NA,0,NA,"You and your friend see another  doberman (not pictured), and your friend says: <br/><b>That's a big dog.</b>",prenominal,NA,32,dogs,NA,0,NA,NA,graduated_college,big,NA,english,male,NA,NA,You and your friend see the following:,1,1571236732868,NA,NA,5,NA,NA,NA,basic,custom_main_text1
581,What do you think your friend meant?,NA,It is small relative to other,images/bird-parade-basic.png,13,NA,NA,NA,no,2,birds,sarah,NA,NA,0,NA,"You and your friend see another  hummingbird (not pictured), and your friend says: <br/><b>That's a small one.</b>",prenominal,NA,32,birds,NA,2,NA,NA,graduated_college,small,NA,english,male,NA,NA,You and your friend see the following:,2,1571236732868,NA,NA,5,NA,NA,NA,basic,custom_main_text1
581,What do you think your friend meant?,NA,It is small relative to other,images/dog-parade-pug.png,13,NA,NA,NA,no,2,dogs2,sarah,NA,NA,1,NA,"You and your friend see another  pug (not pictured), and your friend says: <br/><b>That's a small pug.</b>",prenominal,NA,32,pugs,NA,1,NA,NA,graduated_college,small,NA,english,male,NA,NA,You and your friend see the following:,3,1571236732868,NA,NA,5,NA,NA,NA,congr,custom_main_text1
581,NA,dolphin,NA,NA,13,warmup/goldfish.png,swordfish,This is a,no,2,fish,sarah,NA,goldfish,NA,NA,Please label the pictures below.,NA,NA,32,NA,NA,NA,warmup/swordfish.jpg,fishes,graduated_college,NA,NA,english,male,NA,fish,NA,1,1571236732868,1,This is a,5,These are both,fish,NA,NA,warmup2
581,NA,swordfish,NA,NA,13,warmup/goldfish.png,swordfish,This is a,no,2,fish,sarah,NA,goldfish,NA,NA,Please label the pictures below.,NA,NA,32,NA,NA,NA,warmup/swordfish.jpg,fishes,graduated_college,NA,NA,english,male,NA,fish,NA,1,1571236732868,2,This is a,5,These are both,goldfish,NA,NA,warmup2
581,NA,swordfish,NA,NA,13,warmup/goldfish.png,swordfish,This is a,no,2,fish,sarah,NA,goldfish,NA,NA,Please label the pictures below.,NA,NA,32,NA,NA,NA,warmup/swordfish.jpg,fish,graduated_college,NA,NA,english,male,NA,fish,NA,1,1571236732868,3,This is a,5,These are both,goldfish,NA,NA,warmup2
581,NA,tree,NA,NA,13,warmup/bonsai.jpg,redwood or sequoia (choose one),This is a,no,2,trees,sarah,NA,bonsai,NA,NA,Please label the pictures below.,NA,NA,32,NA,NA,NA,warmup/sequoia.png,trees,graduated_college,NA,NA,english,male,NA,trees,NA,2,1571236732868,1,This is a,5,These are both,planty,NA,NA,warmup2
581,NA,redwood,NA,NA,13,warmup/bonsai.jpg,redwood or sequoia (choose one),This is a,no,2,trees,sarah,NA,bonsai,NA,NA,Please label the pictures below.,NA,NA,32,NA,NA,NA,warmup/sequoia.png,trees,graduated_college,NA,NA,english,male,NA,trees,NA,2,1571236732868,2,This is a,5,These are both,bonsai,NA,NA,warmup2
581,NA,flr,NA,NA,13,warmup/sunflower.png,dandelion,This is a,no,2,flowers,sarah,NA,sunflower,NA,NA,Please label the pictures below.,NA,NA,32,NA,NA,NA,warmup/dandelion.jpg,flowers,graduated_college,NA,NA,english,male,NA,flowers,NA,3,1571236732868,1,This is a,5,These are both,sunflower,NA,NA,warmup2
581,NA,dandelion,NA,NA,13,warmup/sunflower.png,dandelion,This is a,no,2,flowers,sarah,NA,sunflower,NA,NA,Please label the pictures below.,NA,NA,32,NA,NA,NA,warmup/dandelion.jpg,flowers,graduated_college,NA,NA,english,male,NA,flowers,NA,3,1571236732868,2,This is a,5,These are both,sunflower,NA,NA,warmup2
581,Please rephrase your friend's comment.,NA,It is big relative to other,images/fish-parade-basic.png,13,NA,NA,NA,no,2,fish,sarah,NA,NA,0,NA,"You and your friend see another  swordfish (not pictured), and your friend says: <br/><b>That's a big swordfish.</b>",prenominal,NA,32,fishes,NA,1,NA,NA,graduated_college,big,NA,english,male,NA,NA,You and your friend see the following:,1,1571236732868,NA,NA,5,NA,NA,NA,basic,custom_main_text2
581,What do you think your friend meant?,NA,It is big relative to other,images/tree-parade-redwood.png,13,NA,NA,NA,no,2,trees,sarah,NA,NA,1,NA,"You and your friend see another  redwood (not pictured), and your friend says: <br/><b>That's a big one.</b>",prenominal,NA,32,trees,NA,2,NA,NA,graduated_college,big,NA,english,male,NA,NA,You and your friend see the following:,2,1571236732868,NA,NA,5,NA,NA,NA,congr,custom_main_text2
581,What do you think your friend meant?,NA,It is small relative to other,images/flower-parade-dandelion.png,13,NA,NA,NA,no,2,flowers,sarah,NA,NA,1,NA,"You and your friend see another  dandelion (not pictured), and your friend says: <br/><b>That's a small flower.</b>",prenominal,NA,32,plants,NA,0,NA,NA,graduated_college,small,NA,english,male,NA,NA,You and your friend see the following:,3,1571236732868,NA,NA,5,NA,NA,NA,congr,custom_main_text2
580,<i>What do you think Speaker A meant? </i>,NA,The Empire State Building is tall relative to other,NA,13,NA,NA,NA,no,1,NA,barbara,1,NA,NA,yes,NA,NA,"<b> Speaker A: ""The Empire State Building is tall.""</b>",35,buildings,none,NA,NA,NA,graduated_high_school,NA,comp_class_warmup,English,male,NA,NA,In the main trials you will be asked to rephrase something a person said. The utterance will contain a word that is <i>relative</i> and your task is to figure out what it is relative to. <br /> <br /> For example: <br /><br />,1,1571236832476,1,NA,0.75,NA,NA,"buildings, scyscrapers, houses, constructions (choose one)",NA,comp_class_warmup
580,NA,dog,NA,NA,13,warmup/great-dane.jpg,pug,This is a,no,1,dogs,barbara,NA,great dane,NA,yes,Please label the pictures below.,NA,NA,35,NA,none,NA,warmup/pug.jpg,dogs,graduated_high_school,NA,NA,English,male,NA,dogs,NA,1,1571236832476,1,This is a,0.75,These are both,dog,NA,NA,warmup1
580,NA,pug,NA,NA,13,warmup/great-dane.jpg,pug,This is a,no,1,dogs,barbara,NA,great dane,NA,yes,Please label the pictures below.,NA,NA,35,NA,none,NA,warmup/pug.jpg,dogs,graduated_high_school,NA,NA,English,male,NA,dogs,NA,1,1571236832476,2,This is a,0.75,These are both,great dane,NA,NA,warmup1
580,NA,flower,NA,NA,13,warmup/sunflower.png,dandelion,This is a,no,1,flowers,barbara,NA,sunflower,NA,yes,Please label the pictures below.,NA,NA,35,NA,none,NA,warmup/dandelion.jpg,flowers,graduated_high_school,NA,NA,English,male,NA,flowers,NA,2,1571236832476,1,This is a,0.75,These are both,sunflower,NA,NA,warmup1
580,NA,dandelion,NA,NA,13,warmup/sunflower.png,dandelion,This is a,no,1,flowers,barbara,NA,sunflower,NA,yes,Please label the pictures below.,NA,NA,35,NA,none,NA,warmup/dandelion.jpg,flowers,graduated_high_school,NA,NA,English,male,NA,flowers,NA,2,1571236832476,2,This is a,0.75,These are both,sunflower,NA,NA,warmup1
580,NA,sailfish,NA,NA,13,warmup/goldfish.png,swordfish,This is a,no,1,fish,barbara,NA,goldfish,NA,yes,Please label the pictures below.,NA,NA,35,NA,none,NA,warmup/swordfish.jpg,fish,graduated_high_school,NA,NA,English,male,NA,fish,NA,3,1571236832476,1,This is a,0.75,These are both,goldfish,NA,NA,warmup1
580,NA,swordfish,NA,NA,13,warmup/goldfish.png,swordfish,This is a,no,1,fish,barbara,NA,goldfish,NA,yes,Please label the pictures below.,NA,NA,35,NA,none,NA,warmup/swordfish.jpg,fish,graduated_high_school,NA,NA,English,male,NA,fish,NA,3,1571236832476,2,This is a,0.75,These are both,goldfish,NA,NA,warmup1
580,What do you think your friend meant?,NA,It is big relative to other,images/dog-parade-great-dane.png,13,NA,NA,NA,no,1,dogs2,barbara,NA,NA,1,yes,"You and your friend see another  great dane (not pictured), and your friend says: <br/><b>That's a big one.</b>",prenominal,NA,35,dogs,none,2,NA,NA,graduated_high_school,big,NA,English,male,NA,NA,You and your friend see the following:,1,1571236832476,NA,NA,0.75,NA,NA,NA,congr,custom_main_text1
580,Please rephrase your friend's comment.,NA,It is small relative to other,images/fish-parade-basic.png,13,NA,NA,NA,no,1,fish,barbara,NA,NA,0,yes,"You and your friend see another  goldfish (not pictured), and your friend says: <br/><b>That's a small goldfish.</b>",prenominal,NA,35,goldfish,none,1,NA,NA,graduated_high_school,small,NA,English,male,NA,NA,You and your friend see the following:,2,1571236832476,NA,NA,0.75,NA,NA,NA,basic,custom_main_text1
580,What do you think your friend meant?,NA,It is big relative to other,images/flower-parade-basic.png,13,NA,NA,NA,no,1,flowers,barbara,NA,NA,0,yes,"You and your friend see another  sunflower (not pictured), and your friend says: <br/><b>That's a big flower.</b>",prenominal,NA,35,sunflowers,none,0,NA,NA,graduated_high_school,big,NA,English,male,NA,NA,You and your friend see the following:,3,1571236832476,NA,NA,0.75,NA,NA,NA,basic,custom_main_text1
580,NA,tree,NA,NA,13,warmup/bonsai.jpg,redwood or sequoia (choose one),This is a,no,1,trees,barbara,NA,bonsai,NA,yes,Please label the pictures below.,NA,NA,35,NA,none,NA,warmup/sequoia.png,trees,graduated_high_school,NA,NA,English,male,NA,trees,NA,1,1571236832476,1,This is a,0.75,These are both,bonsai,NA,NA,warmup2
580,NA,redwood,NA,NA,13,warmup/bonsai.jpg,redwood or sequoia (choose one),This is a,no,1,trees,barbara,NA,bonsai,NA,yes,Please label the pictures below.,NA,NA,35,NA,none,NA,warmup/sequoia.png,trees,graduated_high_school,NA,NA,English,male,NA,trees,NA,1,1571236832476,2,This is a,0.75,These are both,bonsai,NA,NA,warmup2
580,NA,chow,NA,NA,13,warmup/doberman.png,chihuahua,This is a,no,1,dogs,barbara,NA,doberman,NA,yes,Please label the pictures below.,NA,NA,35,NA,none,NA,warmup/chihuahua.jpg,dogs,graduated_high_school,NA,NA,English,male,NA,dogs,NA,2,1571236832476,1,This is a,0.75,These are both,rottweiler,NA,NA,warmup2
580,NA,chihuahua,NA,NA,13,warmup/doberman.png,chihuahua,This is a,no,1,dogs,barbara,NA,doberman,NA,yes,Please label the pictures below.,NA,NA,35,NA,none,NA,warmup/chihuahua.jpg,dogs,graduated_high_school,NA,NA,English,male,NA,dogs,NA,2,1571236832476,2,This is a,0.75,These are both,doberman,NA,NA,warmup2
580,NA,hummingbird,NA,NA,13,warmup/eagle.jpg,hummingbird,This is a,no,1,birds,barbara,NA,eagle,NA,yes,Please label the pictures below.,NA,NA,35,NA,none,NA,warmup/colibri.jpg,birds,graduated_high_school,NA,NA,English,male,NA,birds,NA,3,1571236832476,1,This is an,0.75,These are both,bald eagle,NA,NA,warmup2
580,NA,hummingbird,NA,NA,13,warmup/eagle.jpg,hummingbird,This is a,no,1,birds,barbara,NA,eagle,NA,yes,Please label the pictures below.,NA,NA,35,NA,none,NA,warmup/colibri.jpg,birds,graduated_high_school,NA,NA,English,male,NA,birds,NA,3,1571236832476,2,This is an,0.75,These are both,eagle,NA,NA,warmup2
580,What do you think your friend meant?,NA,It is small relative to other,images/dog-parade-chihuahua.png,13,NA,NA,NA,no,1,dogs1,barbara,NA,NA,1,yes,"You and your friend see another  chihuahua (not pictured), and your friend says: <br/><b>That's a small dog.</b>",prenominal,NA,35,dogs,none,0,NA,NA,graduated_high_school,small,NA,English,male,NA,NA,You and your friend see the following:,1,1571236832476,NA,NA,0.75,NA,NA,NA,congr,custom_main_text2
580,What do you think your friend meant?,NA,It is big relative to other,images/bird-parade-basic.png,13,NA,NA,NA,no,1,birds,barbara,NA,NA,0,yes,"You and your friend see another  eagle (not pictured), and your friend says: <br/><b>That's a big one.</b>",prenominal,NA,35,birds,none,2,NA,NA,graduated_high_school,big,NA,English,male,NA,NA,You and your friend see the following:,2,1571236832476,NA,NA,0.75,NA,NA,NA,basic,custom_main_text2
580,What do you think your friend meant?,NA,It is small relative to other,images/tree-parade-bonsai.png,13,NA,NA,NA,no,1,trees,barbara,NA,NA,1,yes,"You and your friend see another  bonsai (not pictured), and your friend says: <br/><b>That's a small bonsai.</b>",prenominal,NA,35,trees,none,1,NA,NA,graduated_high_school,small,NA,English,male,NA,NA,You and your friend see the following:,3,1571236832476,NA,NA,0.75,NA,NA,NA,congr,custom_main_text2
579,<i>What do you think Speaker A meant? </i>,NA,The Empire State Building is tall relative to other,NA,13,NA,NA,NA,no,2,NA,patricia,1,NA,NA,yes,NA,NA,"<b> Speaker A: ""The Empire State Building is tall.""</b>",31,buildings,n/a,NA,NA,NA,some_college,NA,comp_class_warmup,English,female,NA,NA,In the main trials you will be asked to rephrase something a person said. The utterance will contain a word that is <i>relative</i> and your task is to figure out what it is relative to. <br /> <br /> For example: <br /><br />,1,1571236819757,1,NA,1,NA,NA,"buildings, scyscrapers, houses, constructions (choose one)",NA,comp_class_warmup
579,NA,small dog,NA,NA,13,warmup/great-dane.jpg,pug,This is a,no,2,dogs,patricia,NA,great dane,NA,yes,Please label the pictures below.,NA,NA,31,NA,n/a,NA,warmup/pug.jpg,dogs,some_college,NA,NA,English,female,NA,dogs,NA,1,1571236819757,1,This is a,1,These are both,big dog,NA,NA,warmup1
579,NA,pug,NA,NA,13,warmup/great-dane.jpg,pug,This is a,no,2,dogs,patricia,NA,great dane,NA,yes,Please label the pictures below.,NA,NA,31,NA,n/a,NA,warmup/pug.jpg,dogs,some_college,NA,NA,English,female,NA,dogs,NA,1,1571236819757,2,This is a,1,These are both,great dane,NA,NA,warmup1
579,NA,dandelion,NA,NA,13,warmup/sunflower.png,dandelion,This is a,no,2,flowers,patricia,NA,sunflower,NA,yes,Please label the pictures below.,NA,NA,31,NA,n/a,NA,warmup/dandelion.jpg,flowers,some_college,NA,NA,English,female,NA,flowers,NA,2,1571236819757,1,This is a,1,These are both,sunflower,NA,NA,warmup1
579,NA,redwood,NA,NA,13,warmup/bonsai.jpg,redwood or sequoia (choose one),This is a,no,2,trees,patricia,NA,bonsai,NA,yes,Please label the pictures below.,NA,NA,31,NA,n/a,NA,warmup/sequoia.png,trees,some_college,NA,NA,English,female,NA,trees,NA,3,1571236819757,1,This is a,1,These are both,bonsai,NA,NA,warmup1
579,What do you think your friend meant?,NA,It is small relative to other,images/tree-parade-basic.png,13,NA,NA,NA,no,2,trees,patricia,NA,NA,0,yes,"You and your friend see another  bonsai (not pictured), and your friend says: <br/><b>That's a small bonsai.</b>",prenominal,NA,31,trees,n/a,1,NA,NA,some_college,small,NA,English,female,NA,NA,You and your friend see the following:,1,1571236819757,NA,NA,1,NA,NA,NA,basic,custom_main_text1
579,What do you think your friend meant?,NA,It is big relative to other,images/flower-parade-basic.png,13,NA,NA,NA,no,2,flowers,patricia,NA,NA,0,yes,"You and your friend see another  sunflower (not pictured), and your friend says: <br/><b>That's a big one.</b>",prenominal,NA,31,flowers,n/a,2,NA,NA,some_college,big,NA,English,female,NA,NA,You and your friend see the following:,2,1571236819757,NA,NA,1,NA,NA,NA,basic,custom_main_text1
579,What do you think your friend meant?,NA,It is small relative to other,images/dog-parade-basic2.png,13,NA,NA,NA,no,2,dogs2,patricia,NA,NA,0,yes,"You and your friend see another  pug (not pictured), and your friend says: <br/><b>That's a small one.</b>",prenominal,NA,31,dogs,n/a,2,NA,NA,some_college,small,NA,English,female,NA,NA,You and your friend see the following:,3,1571236819757,NA,NA,1,NA,NA,NA,basic,custom_main_text1
579,NA,chihuahua,NA,NA,13,warmup/doberman.png,chihuahua,This is a,no,2,dogs,patricia,NA,doberman,NA,yes,Please label the pictures below.,NA,NA,31,NA,n/a,NA,warmup/chihuahua.jpg,dogs,some_college,NA,NA,English,female,NA,dogs,NA,1,1571236819757,1,This is a,1,These are both,doberman,NA,NA,warmup2
579,NA,marlin,NA,NA,13,warmup/goldfish.png,swordfish,This is a,no,2,fish,patricia,NA,goldfish,NA,yes,Please label the pictures below.,NA,NA,31,NA,n/a,NA,warmup/swordfish.jpg,fish,some_college,NA,NA,English,female,NA,fish,NA,2,1571236819757,1,This is a,1,These are both,goldfish,NA,NA,warmup2
579,NA,swordfish,NA,NA,13,warmup/goldfish.png,swordfish,This is a,no,2,fish,patricia,NA,goldfish,NA,yes,Please label the pictures below.,NA,NA,31,NA,n/a,NA,warmup/swordfish.jpg,fish,some_college,NA,NA,English,female,NA,fish,NA,2,1571236819757,2,This is a,1,These are both,goldfish,NA,NA,warmup2
579,NA,hummingbird,NA,NA,13,warmup/eagle.jpg,hummingbird,This is a,no,2,birds,patricia,NA,eagle,NA,yes,Please label the pictures below.,NA,NA,31,NA,n/a,NA,warmup/colibri.jpg,birds,some_college,NA,NA,English,female,NA,birds,NA,3,1571236819757,1,This is an,1,These are both,eagle,NA,NA,warmup2
579,What do you think your friend meant?,NA,It is big relative to other,images/bird-parade-eagle.png,13,NA,NA,NA,no,2,birds,patricia,NA,NA,1,yes,"You and your friend see another  eagle (not pictured), and your friend says: <br/><b>That's a big eagle.</b>",prenominal,NA,31,birds,n/a,1,NA,NA,some_college,big,NA,English,female,NA,NA,You and your friend see the following:,1,1571236819757,NA,NA,1,NA,NA,NA,congr,custom_main_text2
579,What do you think your friend meant?,NA,It is big relative to other,images/dog-parade-doberman.png,13,NA,NA,NA,no,2,dogs1,patricia,NA,NA,1,yes,"You and your friend see another  doberman (not pictured), and your friend says: <br/><b>That's a big dog.</b>",prenominal,NA,31,dogs,n/a,0,NA,NA,some_college,big,NA,English,female,NA,NA,You and your friend see the following:,2,1571236819757,NA,NA,1,NA,NA,NA,congr,custom_main_text2
579,Please rephrase your friend's comment.,NA,It is small relative to other,images/fish-parade-goldfish.png,13,NA,NA,NA,no,2,fish,patricia,NA,NA,1,yes,"You and your friend see another  goldfish (not pictured), and your friend says: <br/><b>That's a small fish.</b>",prenominal,NA,31,fish,n/a,0,NA,NA,some_college,small,NA,English,female,NA,NA,You and your friend see the following:,3,1571236819757,NA,NA,1,NA,NA,NA,congr,custom_main_text2
577,<i>What do you think Speaker A meant? </i>,NA,The Empire State Building is tall relative to other,NA,13,NA,NA,NA,no,2,NA,jennifer,1,NA,NA,yes,NA,NA,"<b> Speaker A: ""The Empire State Building is tall.""</b>",26,buildings,NA,NA,NA,NA,some_college,NA,comp_class_warmup,English,female,NA,NA,In the main trials you will be asked to rephrase something a person said. The utterance will contain a word that is <i>relative</i> and your task is to figure out what it is relative to. <br /> <br /> For example: <br /><br />,1,1571236194150,1,NA,2,NA,NA,"buildings, scyscrapers, houses, constructions (choose one)",NA,comp_class_warmup
577,NA,chihuahua,NA,NA,13,warmup/doberman.png,chihuahua,This is a,no,2,dogs,jennifer,NA,doberman,NA,yes,Please label the pictures below.,NA,NA,26,NA,NA,NA,warmup/chihuahua.jpg,dogs,some_college,NA,NA,English,female,NA,dogs,NA,1,1571236194150,1,This is a,2,These are both,doberman,NA,NA,warmup1
577,NA,sequoia,NA,NA,13,warmup/bonsai.jpg,redwood or sequoia (choose one),This is a,no,2,trees,jennifer,NA,bonsai,NA,yes,Please label the pictures below.,NA,NA,26,NA,NA,NA,warmup/sequoia.png,trees,some_college,NA,NA,English,female,NA,trees,NA,2,1571236194150,1,This is a,2,These are both,bonzai,NA,NA,warmup1
577,NA,sequoia,NA,NA,13,warmup/bonsai.jpg,redwood or sequoia (choose one),This is a,no,2,trees,jennifer,NA,bonsai,NA,yes,Please label the pictures below.,NA,NA,26,NA,NA,NA,warmup/sequoia.png,trees,some_college,NA,NA,English,female,NA,trees,NA,2,1571236194150,2,This is a,2,These are both,bonsai,NA,NA,warmup1
577,NA,hummingbird,NA,NA,13,warmup/eagle.jpg,hummingbird,This is a,no,2,birds,jennifer,NA,eagle,NA,yes,Please label the pictures below.,NA,NA,26,NA,NA,NA,warmup/colibri.jpg,birds,some_college,NA,NA,English,female,NA,birds,NA,3,1571236194150,1,This is an,2,These are both,eagle,NA,NA,warmup1
577,What do you think your friend meant?,NA,It is small relative to other,images/bird-parade-basic.png,13,NA,NA,NA,no,2,birds,jennifer,NA,NA,0,yes,"You and your friend see another  hummingbird (not pictured), and your friend says: <br/><b>That's a small one.</b>",prenominal,NA,26,birds,NA,2,NA,NA,some_college,small,NA,English,female,NA,NA,You and your friend see the following:,1,1571236194150,NA,NA,2,NA,NA,NA,basic,custom_main_text1
577,What do you think your friend meant?,NA,It is big relative to other,images/dog-parade-basic.png,13,NA,NA,NA,no,2,dogs1,jennifer,NA,NA,0,yes,"You and your friend see another  doberman (not pictured), and your friend says: <br/><b>That's a big doberman.</b>",prenominal,NA,26,dogs,NA,1,NA,NA,some_college,big,NA,English,female,NA,NA,You and your friend see the following:,2,1571236194150,NA,NA,2,NA,NA,NA,basic,custom_main_text1
577,What do you think your friend meant?,NA,It is big relative to other,images/tree-parade-redwood.png,13,NA,NA,NA,no,2,trees,jennifer,NA,NA,1,yes,"You and your friend see another  redwood (not pictured), and your friend says: <br/><b>That's a big redwood.</b>",prenominal,NA,26,trees,NA,1,NA,NA,some_college,big,NA,English,female,NA,NA,You and your friend see the following:,3,1571236194150,NA,NA,2,NA,NA,NA,congr,custom_main_text1
577,NA,pug,NA,NA,13,warmup/great-dane.jpg,pug,This is a,no,2,dogs,jennifer,NA,great dane,NA,yes,Please label the pictures below.,NA,NA,26,NA,NA,NA,warmup/pug.jpg,dogs,some_college,NA,NA,English,female,NA,dogs,NA,1,1571236194150,1,This is a,2,These are both,great dane,NA,NA,warmup2
577,NA,dandelion,NA,NA,13,warmup/sunflower.png,dandelion,This is a,no,2,flowers,jennifer,NA,sunflower,NA,yes,Please label the pictures below.,NA,NA,26,NA,NA,NA,warmup/dandelion.jpg,flowers,some_college,NA,NA,English,female,NA,flowers,NA,2,1571236194150,1,This is a,2,These are both,sunflower,NA,NA,warmup2
577,NA,swordfish,NA,NA,13,warmup/goldfish.png,swordfish,This is a,no,2,fish,jennifer,NA,goldfish,NA,yes,Please label the pictures below.,NA,NA,26,NA,NA,NA,warmup/swordfish.jpg,fish,some_college,NA,NA,English,female,NA,fish,NA,3,1571236194150,1,This is a,2,These are both,goldfish,NA,NA,warmup2
577,What do you think your friend meant?,NA,It is small relative to other,images/flower-parade-dandelion.png,13,NA,NA,NA,no,2,flowers,jennifer,NA,NA,1,yes,"You and your friend see another  dandelion (not pictured), and your friend says: <br/><b>That's a small flower.</b>",prenominal,NA,26,flowers,NA,0,NA,NA,some_college,small,NA,English,female,NA,NA,You and your friend see the following:,1,1571236194150,NA,NA,2,NA,NA,NA,congr,custom_main_text2
577,What do you think your friend meant?,NA,It is big relative to other,images/dog-parade-basic2.png,13,NA,NA,NA,no,2,dogs2,jennifer,NA,NA,0,yes,"You and your friend see another  great dane (not pictured), and your friend says: <br/><b>That's a big one.</b>",prenominal,NA,26,dogs,NA,2,NA,NA,some_college,big,NA,English,female,NA,NA,You and your friend see the following:,2,1571236194150,NA,NA,2,NA,NA,NA,basic,custom_main_text2
577,Please rephrase your friend's comment.,NA,It is small relative to other,images/fish-parade-goldfish.png,13,NA,NA,NA,no,2,fish,jennifer,NA,NA,1,yes,"You and your friend see another  goldfish (not pictured), and your friend says: <br/><b>That's a small fish.</b>",prenominal,NA,26,fish,NA,0,NA,NA,some_college,small,NA,English,female,NA,NA,You and your friend see the following:,3,1571236194150,NA,NA,2,NA,NA,NA,congr,custom_main_text2
573,<i>What do you think Speaker A meant? </i>,NA,The Empire State Building is tall relative to other,NA,13,NA,NA,NA,no,2,NA,barbara,1,NA,NA,yes,NA,NA,"<b> Speaker A: ""The Empire State Building is tall.""</b>",27,buildings,NA,NA,NA,NA,some_college,NA,comp_class_warmup,english,female,NA,NA,In the main trials you will be asked to rephrase something a person said. The utterance will contain a word that is <i>relative</i> and your task is to figure out what it is relative to. <br /> <br /> For example: <br /><br />,1,1571236033535,1,NA,1,NA,NA,"buildings, scyscrapers, houses, constructions (choose one)",NA,comp_class_warmup
573,NA,carnation,NA,NA,13,warmup/sunflower.png,dandelion,This is a,no,2,flowers,barbara,NA,sunflower,NA,yes,Please label the pictures below.,NA,NA,27,NA,NA,NA,warmup/dandelion.jpg,flowers,some_college,NA,NA,english,female,NA,flowers,NA,1,1571236033535,1,This is a,1,These are both,sunflower,NA,NA,warmup1
573,NA,carnation,NA,NA,13,warmup/sunflower.png,dandelion,This is a,no,2,flowers,barbara,NA,sunflower,NA,yes,Please label the pictures below.,NA,NA,27,NA,NA,NA,warmup/dandelion.jpg,flowers,some_college,NA,NA,english,female,NA,flowers,NA,1,1571236033535,2,This is a,1,These are both,sunflower,NA,NA,warmup1
573,NA,dandelion,NA,NA,13,warmup/sunflower.png,dandelion,This is a,no,2,flowers,barbara,NA,sunflower,NA,yes,Please label the pictures below.,NA,NA,27,NA,NA,NA,warmup/dandelion.jpg,flowers,some_college,NA,NA,english,female,NA,flowers,NA,1,1571236033535,3,This is a,1,These are both,sunflower,NA,NA,warmup1
573,NA,pug,NA,NA,13,warmup/great-dane.jpg,pug,This is a,no,2,dogs,barbara,NA,great dane,NA,yes,Please label the pictures below.,NA,NA,27,NA,NA,NA,warmup/pug.jpg,dogs,some_college,NA,NA,english,female,NA,dogs,NA,2,1571236033535,1,This is a,1,These are both,doberman,NA,NA,warmup1
573,NA,pug,NA,NA,13,warmup/great-dane.jpg,pug,This is a,no,2,dogs,barbara,NA,great dane,NA,yes,Please label the pictures below.,NA,NA,27,NA,NA,NA,warmup/pug.jpg,dogs,some_college,NA,NA,english,female,NA,dogs,NA,2,1571236033535,2,This is a,1,These are both,great dane,NA,NA,warmup1
573,NA,hummingbird,NA,NA,13,warmup/eagle.jpg,hummingbird,This is a,no,2,birds,barbara,NA,eagle,NA,yes,Please label the pictures below.,NA,NA,27,NA,NA,NA,warmup/colibri.jpg,birds,some_college,NA,NA,english,female,NA,birds,NA,3,1571236033535,1,This is an,1,These are both,eagle,NA,NA,warmup1
573,What do you think your friend meant?,NA,It is big relative to other,images/bird-parade-basic.png,13,NA,NA,NA,no,2,birds,barbara,NA,NA,0,yes,"You and your friend see another  eagle (not pictured), and your friend says: <br/><b>That's a big one.</b>",prenominal,NA,27,eagles,NA,2,NA,NA,some_college,big,NA,english,female,NA,NA,You and your friend see the following:,1,1571236033535,NA,NA,1,NA,NA,NA,basic,custom_main_text1
573,What do you think your friend meant?,NA,It is small relative to other,images/dog-parade-pug.png,13,NA,NA,NA,no,2,dogs2,barbara,NA,NA,1,yes,"You and your friend see another  pug (not pictured), and your friend says: <br/><b>That's a small dog.</b>",prenominal,NA,27,dogs,NA,0,NA,NA,some_college,small,NA,english,female,NA,NA,You and your friend see the following:,2,1571236033535,NA,NA,1,NA,NA,NA,congr,custom_main_text1
573,What do you think your friend meant?,NA,It is small relative to other,images/flower-parade-dandelion.png,13,NA,NA,NA,no,2,flowers,barbara,NA,NA,1,yes,"You and your friend see another  dandelion (not pictured), and your friend says: <br/><b>That's a small dandelion.</b>",prenominal,NA,27,dandelion,NA,1,NA,NA,some_college,small,NA,english,female,NA,NA,You and your friend see the following:,3,1571236033535,NA,NA,1,NA,NA,NA,congr,custom_main_text1
573,NA,chihuahua,NA,NA,13,warmup/doberman.png,chihuahua,This is a,no,2,dogs,barbara,NA,doberman,NA,yes,Please label the pictures below.,NA,NA,27,NA,NA,NA,warmup/chihuahua.jpg,dogs,some_college,NA,NA,english,female,NA,dogs,NA,1,1571236033535,1,This is a,1,These are both,doberman,NA,NA,warmup2
573,NA,marlin,NA,NA,13,warmup/goldfish.png,swordfish,This is a,no,2,fish,barbara,NA,goldfish,NA,yes,Please label the pictures below.,NA,NA,27,NA,NA,NA,warmup/swordfish.jpg,fish,some_college,NA,NA,english,female,NA,fish,NA,2,1571236033535,1,This is a,1,These are both,goldfish,NA,NA,warmup2
573,NA,swordfish,NA,NA,13,warmup/goldfish.png,swordfish,This is a,no,2,fish,barbara,NA,goldfish,NA,yes,Please label the pictures below.,NA,NA,27,NA,NA,NA,warmup/swordfish.jpg,fish,some_college,NA,NA,english,female,NA,fish,NA,2,1571236033535,2,This is a,1,These are both,goldfish,NA,NA,warmup2
573,NA,birch,NA,NA,13,warmup/bonsai.jpg,redwood or sequoia (choose one),This is a,no,2,trees,barbara,NA,bonsai,NA,yes,Please label the pictures below.,NA,NA,27,NA,NA,NA,warmup/sequoia.png,trees,some_college,NA,NA,english,female,NA,trees,NA,3,1571236033535,1,This is a,1,These are both,bonsai,NA,NA,warmup2
573,NA,redwood,NA,NA,13,warmup/bonsai.jpg,redwood or sequoia (choose one),This is a,no,2,trees,barbara,NA,bonsai,NA,yes,Please label the pictures below.,NA,NA,27,NA,NA,NA,warmup/sequoia.png,trees,some_college,NA,NA,english,female,NA,trees,NA,3,1571236033535,2,This is a,1,These are both,bonsai,NA,NA,warmup2
573,What do you think your friend meant?,NA,It is big relative to other,images/tree-parade-redwood.png,13,NA,NA,NA,no,2,trees,barbara,NA,NA,1,yes,"You and your friend see another  redwood (not pictured), and your friend says: <br/><b>That's a big tree.</b>",prenominal,NA,27,trees,NA,0,NA,NA,some_college,big,NA,english,female,NA,NA,You and your friend see the following:,1,1571236033535,NA,NA,1,NA,NA,NA,congr,custom_main_text2
573,What do you think your friend meant?,NA,It is big relative to other,images/dog-parade-basic.png,13,NA,NA,NA,no,2,dogs1,barbara,NA,NA,0,yes,"You and your friend see another  doberman (not pictured), and your friend says: <br/><b>That's a big doberman.</b>",prenominal,NA,27,doberman,NA,1,NA,NA,some_college,big,NA,english,female,NA,NA,You and your friend see the following:,2,1571236033535,NA,NA,1,NA,NA,NA,basic,custom_main_text2
573,Please rephrase your friend's comment.,NA,It is small relative to other,images/fish-parade-basic.png,13,NA,NA,NA,no,2,fish,barbara,NA,NA,0,yes,"You and your friend see another  goldfish (not pictured), and your friend says: <br/><b>That's a small one.</b>",prenominal,NA,27,fish,NA,2,NA,NA,some_college,small,NA,english,female,NA,NA,You and your friend see the following:,3,1571236033535,NA,NA,1,NA,NA,NA,basic,custom_main_text2
570,<i>What do you think Speaker A meant? </i>,NA,The Empire State Building is tall relative to other,NA,13,NA,NA,NA,none,1,NA,mary,1,NA,NA,yes,NA,NA,"<b> Speaker A: ""The Empire State Building is tall.""</b>",38,buildings,NA,NA,NA,NA,some_college,NA,comp_class_warmup,english,male,NA,NA,In the main trials you will be asked to rephrase something a person said. The utterance will contain a word that is <i>relative</i> and your task is to figure out what it is relative to. <br /> <br /> For example: <br /><br />,1,1571235533657,1,NA,1,NA,NA,"buildings, scyscrapers, houses, constructions (choose one)",NA,comp_class_warmup
570,NA,hummingbird,NA,NA,13,warmup/eagle.jpg,hummingbird,This is a,none,1,birds,mary,NA,eagle,NA,yes,Please label the pictures below.,NA,NA,38,NA,NA,NA,warmup/colibri.jpg,birds,some_college,NA,NA,english,male,NA,birds,NA,1,1571235533657,1,This is an,1,These are both,eagle,NA,NA,warmup1
570,NA,small dog,NA,NA,13,warmup/great-dane.jpg,pug,This is a,none,1,dogs,mary,NA,great dane,NA,yes,Please label the pictures below.,NA,NA,38,NA,NA,NA,warmup/pug.jpg,dogs,some_college,NA,NA,english,male,NA,dogs,NA,2,1571235533657,1,This is a,1,These are both,great dane,NA,NA,warmup1
570,NA,pug,NA,NA,13,warmup/great-dane.jpg,pug,This is a,none,1,dogs,mary,NA,great dane,NA,yes,Please label the pictures below.,NA,NA,38,NA,NA,NA,warmup/pug.jpg,dogs,some_college,NA,NA,english,male,NA,dogs,NA,2,1571235533657,2,This is a,1,These are both,great dane,NA,NA,warmup1
570,NA,daisy,NA,NA,13,warmup/sunflower.png,dandelion,This is a,none,1,flowers,mary,NA,sunflower,NA,yes,Please label the pictures below.,NA,NA,38,NA,NA,NA,warmup/dandelion.jpg,flowers,some_college,NA,NA,english,male,NA,flowers,NA,3,1571235533657,1,This is a,1,These are both,sunflower,NA,NA,warmup1
570,NA,dandelion,NA,NA,13,warmup/sunflower.png,dandelion,This is a,none,1,flowers,mary,NA,sunflower,NA,yes,Please label the pictures below.,NA,NA,38,NA,NA,NA,warmup/dandelion.jpg,flowers,some_college,NA,NA,english,male,NA,flowers,NA,3,1571235533657,2,This is a,1,These are both,sunflower,NA,NA,warmup1
570,What do you think your friend meant?,NA,It is small relative to other,images/bird-parade-hummingbird.png,13,NA,NA,NA,none,1,birds,mary,NA,NA,1,yes,"You and your friend see another  hummingbird (not pictured), and your friend says: <br/><b>That's a small bird.</b>",prenominal,NA,38,birds,NA,0,NA,NA,some_college,small,NA,english,male,NA,NA,You and your friend see the following:,1,1571235533657,NA,NA,1,NA,NA,NA,congr,custom_main_text1
570,What do you think your friend meant?,NA,It is big relative to other,images/dog-parade-basic2.png,13,NA,NA,NA,none,1,dogs2,mary,NA,NA,0,yes,"You and your friend see another  great dane (not pictured), and your friend says: <br/><b>That's a big one.</b>",prenominal,NA,38,dogs,NA,2,NA,NA,some_college,big,NA,english,male,NA,NA,You and your friend see the following:,2,1571235533657,NA,NA,1,NA,NA,NA,basic,custom_main_text1
570,What do you think your friend meant?,NA,It is big relative to other,images/flower-parade-sunflower.png,13,NA,NA,NA,none,1,flowers,mary,NA,NA,1,yes,"You and your friend see another  sunflower (not pictured), and your friend says: <br/><b>That's a big sunflower.</b>",prenominal,NA,38,sunflowers,NA,1,NA,NA,some_college,big,NA,english,male,NA,NA,You and your friend see the following:,3,1571235533657,NA,NA,1,NA,NA,NA,congr,custom_main_text1
570,NA,redwood,NA,NA,13,warmup/bonsai.jpg,redwood or sequoia (choose one),This is a,none,1,trees,mary,NA,bonsai,NA,yes,Please label the pictures below.,NA,NA,38,NA,NA,NA,warmup/sequoia.png,trees,some_college,NA,NA,english,male,NA,trees,NA,1,1571235533657,1,This is a,1,These are both,bonzai,NA,NA,warmup2
570,NA,redwood,NA,NA,13,warmup/bonsai.jpg,redwood or sequoia (choose one),This is a,none,1,trees,mary,NA,bonsai,NA,yes,Please label the pictures below.,NA,NA,38,NA,NA,NA,warmup/sequoia.png,trees,some_college,NA,NA,english,male,NA,trees,NA,1,1571235533657,2,This is a,1,These are both,bonsai,NA,NA,warmup2
570,NA,swordfish,NA,NA,13,warmup/goldfish.png,swordfish,This is a,none,1,fish,mary,NA,goldfish,NA,yes,Please label the pictures below.,NA,NA,38,NA,NA,NA,warmup/swordfish.jpg,fish,some_college,NA,NA,english,male,NA,fish,NA,2,1571235533657,1,This is a,1,These are both,goldfish,NA,NA,warmup2
570,NA,chihuahua,NA,NA,13,warmup/doberman.png,chihuahua,This is a,none,1,dogs,mary,NA,doberman,NA,yes,Please label the pictures below.,NA,NA,38,NA,NA,NA,warmup/chihuahua.jpg,dogs,some_college,NA,NA,english,male,NA,dogs,NA,3,1571235533657,1,This is a,1,These are both,doberman,NA,NA,warmup2
570,What do you think your friend meant?,NA,It is big relative to other,images/tree-parade-redwood.png,13,NA,NA,NA,none,1,trees,mary,NA,NA,1,yes,"You and your friend see another  redwood (not pictured), and your friend says: <br/><b>That's a big one.</b>",prenominal,NA,38,redwoods,NA,2,NA,NA,some_college,big,NA,english,male,NA,NA,You and your friend see the following:,1,1571235533657,NA,NA,1,NA,NA,NA,congr,custom_main_text2
570,Please rephrase your friend's comment.,NA,It is small relative to other,images/fish-parade-basic.png,13,NA,NA,NA,none,1,fish,mary,NA,NA,0,yes,"You and your friend see another  goldfish (not pictured), and your friend says: <br/><b>That's a small fish.</b>",prenominal,NA,38,fish,NA,0,NA,NA,some_college,small,NA,english,male,NA,NA,You and your friend see the following:,2,1571235533657,NA,NA,1,NA,NA,NA,basic,custom_main_text2
570,What do you think your friend meant?,NA,It is small relative to other,images/dog-parade-basic.png,13,NA,NA,NA,none,1,dogs1,mary,NA,NA,0,yes,"You and your friend see another  chihuahua (not pictured), and your friend says: <br/><b>That's a small chihuahua.</b>",prenominal,NA,38,dogs,NA,1,NA,NA,some_college,small,NA,english,male,NA,NA,You and your friend see the following:,3,1571235533657,NA,NA,1,NA,NA,NA,basic,custom_main_text2
569,<i>What do you think Speaker A meant? </i>,NA,The Empire State Building is tall relative to other,NA,13,NA,NA,NA,No.,2,NA,jessica,1,NA,NA,yes,NA,NA,"<b> Speaker A: ""The Empire State Building is tall.""</b>",34,buildings,NA,NA,NA,NA,graduated_college,NA,comp_class_warmup,English,male,NA,NA,In the main trials you will be asked to rephrase something a person said. The utterance will contain a word that is <i>relative</i> and your task is to figure out what it is relative to. <br /> <br /> For example: <br /><br />,1,1571234429953,1,NA,1,NA,NA,"buildings, scyscrapers, houses, constructions (choose one)",NA,comp_class_warmup
569,NA,shark,NA,NA,13,warmup/goldfish.png,swordfish,This is a,No.,2,fish,jessica,NA,goldfish,NA,yes,Please label the pictures below.,NA,NA,34,NA,NA,NA,warmup/swordfish.jpg,fish,graduated_college,NA,NA,English,male,NA,fish,NA,1,1571234429953,1,This is a,1,These are both,goldfish,NA,NA,warmup1
569,NA,swordfish,NA,NA,13,warmup/goldfish.png,swordfish,This is a,No.,2,fish,jessica,NA,goldfish,NA,yes,Please label the pictures below.,NA,NA,34,NA,NA,NA,warmup/swordfish.jpg,fish,graduated_college,NA,NA,English,male,NA,fish,NA,1,1571234429953,2,This is a,1,These are both,goldfish,NA,NA,warmup1
569,NA,bulldog,NA,NA,13,warmup/great-dane.jpg,pug,This is a,No.,2,dogs,jessica,NA,great dane,NA,yes,Please label the pictures below.,NA,NA,34,NA,NA,NA,warmup/pug.jpg,dogs,graduated_college,NA,NA,English,male,NA,dogs,NA,2,1571234429953,1,This is a,1,These are both,lab,NA,NA,warmup1
569,NA,pug,NA,NA,13,warmup/great-dane.jpg,pug,This is a,No.,2,dogs,jessica,NA,great dane,NA,yes,Please label the pictures below.,NA,NA,34,NA,NA,NA,warmup/pug.jpg,dogs,graduated_college,NA,NA,English,male,NA,dogs,NA,2,1571234429953,2,This is a,1,These are both,great dane,NA,NA,warmup1
569,NA,hummingbird,NA,NA,13,warmup/eagle.jpg,hummingbird,This is a,No.,2,birds,jessica,NA,eagle,NA,yes,Please label the pictures below.,NA,NA,34,NA,NA,NA,warmup/colibri.jpg,birds,graduated_college,NA,NA,English,male,NA,birds,NA,3,1571234429953,1,This is an,1,These are both,eagle,NA,NA,warmup1
569,What do you think your friend meant?,NA,It is big relative to other,images/dog-parade-basic2.png,13,NA,NA,NA,No.,2,dogs2,jessica,NA,NA,0,yes,"You and your friend see another  great dane (not pictured), and your friend says: <br/><b>That's a big great dane.</b>",prenominal,NA,34,dogs,NA,1,NA,NA,graduated_college,big,NA,English,male,NA,NA,You and your friend see the following:,1,1571234429953,NA,NA,1,NA,NA,NA,basic,custom_main_text1
569,Please rephrase your friend's comment.,NA,It is small relative to other,images/fish-parade-goldfish.png,13,NA,NA,NA,No.,2,fish,jessica,NA,NA,1,yes,"You and your friend see another  goldfish (not pictured), and your friend says: <br/><b>That's a small one.</b>",prenominal,NA,34,goldfish,NA,2,NA,NA,graduated_college,small,NA,English,male,NA,NA,You and your friend see the following:,2,1571234429953,NA,NA,1,NA,NA,NA,congr,custom_main_text1
569,What do you think your friend meant?,NA,It is small relative to other,images/bird-parade-basic.png,13,NA,NA,NA,No.,2,birds,jessica,NA,NA,0,yes,"You and your friend see another  hummingbird (not pictured), and your friend says: <br/><b>That's a small bird.</b>",prenominal,NA,34,birds,NA,0,NA,NA,graduated_college,small,NA,English,male,NA,NA,You and your friend see the following:,3,1571234429953,NA,NA,1,NA,NA,NA,basic,custom_main_text1
569,NA,dandelion,NA,NA,13,warmup/sunflower.png,dandelion,This is a,No.,2,flowers,jessica,NA,sunflower,NA,yes,Please label the pictures below.,NA,NA,34,NA,NA,NA,warmup/dandelion.jpg,flowers,graduated_college,NA,NA,English,male,NA,flowers,NA,1,1571234429953,1,This is a,1,These are both,sunflower,NA,NA,warmup2
569,NA,weiner,NA,NA,13,warmup/doberman.png,chihuahua,This is a,No.,2,dogs,jessica,NA,doberman,NA,yes,Please label the pictures below.,NA,NA,34,NA,NA,NA,warmup/chihuahua.jpg,dogs,graduated_college,NA,NA,English,male,NA,dogs,NA,2,1571234429953,1,This is a,1,These are both,big dog,NA,NA,warmup2
569,NA,chihuahua,NA,NA,13,warmup/doberman.png,chihuahua,This is a,No.,2,dogs,jessica,NA,doberman,NA,yes,Please label the pictures below.,NA,NA,34,NA,NA,NA,warmup/chihuahua.jpg,dogs,graduated_college,NA,NA,English,male,NA,dogs,NA,2,1571234429953,2,This is a,1,These are both,doberman,NA,NA,warmup2
569,NA,maple tree,NA,NA,13,warmup/bonsai.jpg,redwood or sequoia (choose one),This is a,No.,2,trees,jessica,NA,bonsai,NA,yes,Please label the pictures below.,NA,NA,34,NA,NA,NA,warmup/sequoia.png,trees,graduated_college,NA,NA,English,male,NA,trees,NA,3,1571234429953,1,This is a,1,These are both,shrub,NA,NA,warmup2
569,NA,redwood,NA,NA,13,warmup/bonsai.jpg,redwood or sequoia (choose one),This is a,No.,2,trees,jessica,NA,bonsai,NA,yes,Please label the pictures below.,NA,NA,34,NA,NA,NA,warmup/sequoia.png,trees,graduated_college,NA,NA,English,male,NA,trees,NA,3,1571234429953,2,This is a,1,These are both,bonsai,NA,NA,warmup2
569,What do you think your friend meant?,NA,It is big relative to other,images/flower-parade-sunflower.png,13,NA,NA,NA,No.,2,flowers,jessica,NA,NA,1,yes,"You and your friend see another  sunflower (not pictured), and your friend says: <br/><b>That's a big one.</b>",prenominal,NA,34,sunflowers,NA,2,NA,NA,graduated_college,big,NA,English,male,NA,NA,You and your friend see the following:,1,1571234429953,NA,NA,1,NA,NA,NA,congr,custom_main_text2
569,What do you think your friend meant?,NA,It is small relative to other,images/tree-parade-basic.png,13,NA,NA,NA,No.,2,trees,jessica,NA,NA,0,yes,"You and your friend see another  bonsai (not pictured), and your friend says: <br/><b>That's a small bonsai.</b>",prenominal,NA,34,bonsais,NA,1,NA,NA,graduated_college,small,NA,English,male,NA,NA,You and your friend see the following:,2,1571234429953,NA,NA,1,NA,NA,NA,basic,custom_main_text2
569,What do you think your friend meant?,NA,It is big relative to other,images/dog-parade-doberman.png,13,NA,NA,NA,No.,2,dogs1,jessica,NA,NA,1,yes,"You and your friend see another  doberman (not pictured), and your friend says: <br/><b>That's a big dog.</b>",prenominal,NA,34,dogs,NA,0,NA,NA,graduated_college,big,NA,English,male,NA,NA,You and your friend see the following:,3,1571234429953,NA,NA,1,NA,NA,NA,congr,custom_main_text2
568,<i>What do you think Speaker A meant? </i>,NA,The Empire State Building is tall relative to other,NA,13,NA,NA,NA,NA,2,NA,sarah,1,NA,NA,yes,NA,NA,"<b> Speaker A: ""The Empire State Building is tall.""</b>",20,buildings,NA,NA,NA,NA,some_college,NA,comp_class_warmup,english,male,NA,NA,In the main trials you will be asked to rephrase something a person said. The utterance will contain a word that is <i>relative</i> and your task is to figure out what it is relative to. <br /> <br /> For example: <br /><br />,1,1571235205628,1,NA,1,NA,NA,"buildings, scyscrapers, houses, constructions (choose one)",NA,comp_class_warmup
568,NA,tree,NA,NA,13,warmup/bonsai.jpg,redwood or sequoia (choose one),This is a,NA,2,trees,sarah,NA,bonsai,NA,yes,Please label the pictures below.,NA,NA,20,NA,NA,NA,warmup/sequoia.png,trees,some_college,NA,NA,english,male,NA,trees,NA,1,1571235205628,1,This is a,1,These are both,small tree,NA,NA,warmup1
568,NA,tree,NA,NA,13,warmup/bonsai.jpg,redwood or sequoia (choose one),This is a,NA,2,trees,sarah,NA,bonsai,NA,yes,Please label the pictures below.,NA,NA,20,NA,NA,NA,warmup/sequoia.png,trees,some_college,NA,NA,english,male,NA,trees,NA,1,1571235205628,2,This is a,1,These are both,small tree,NA,NA,warmup1
568,NA,tree,NA,NA,13,warmup/bonsai.jpg,redwood or sequoia (choose one),This is a,NA,2,trees,sarah,NA,bonsai,NA,yes,Please label the pictures below.,NA,NA,20,NA,NA,NA,warmup/sequoia.png,trees,some_college,NA,NA,english,male,NA,trees,NA,1,1571235205628,3,This is a,1,These are both,small tree,NA,NA,warmup1
568,NA,redwood,NA,NA,13,warmup/bonsai.jpg,redwood or sequoia (choose one),This is a,NA,2,trees,sarah,NA,bonsai,NA,yes,Please label the pictures below.,NA,NA,20,NA,NA,NA,warmup/sequoia.png,trees,some_college,NA,NA,english,male,NA,trees,NA,1,1571235205628,4,This is a,1,These are both,bonsai,NA,NA,warmup1
568,NA,dandelion,NA,NA,13,warmup/sunflower.png,dandelion,This is a,NA,2,flowers,sarah,NA,sunflower,NA,yes,Please label the pictures below.,NA,NA,20,NA,NA,NA,warmup/dandelion.jpg,flowers,some_college,NA,NA,english,male,NA,flowers,NA,2,1571235205628,1,This is a,1,These are both,sunflower,NA,NA,warmup1
568,NA,chihauhah,NA,NA,13,warmup/doberman.png,chihuahua,This is a,NA,2,dogs,sarah,NA,doberman,NA,yes,Please label the pictures below.,NA,NA,20,NA,NA,NA,warmup/chihuahua.jpg,dogs,some_college,NA,NA,english,male,NA,dogs,NA,3,1571235205628,1,This is a,1,These are both,great dane,NA,NA,warmup1
568,NA,chihauha,NA,NA,13,warmup/doberman.png,chihuahua,This is a,NA,2,dogs,sarah,NA,doberman,NA,yes,Please label the pictures below.,NA,NA,20,NA,NA,NA,warmup/chihuahua.jpg,dogs,some_college,NA,NA,english,male,NA,dogs,NA,3,1571235205628,2,This is a,1,These are both,doberman,NA,NA,warmup1
568,NA,chihuaha,NA,NA,13,warmup/doberman.png,chihuahua,This is a,NA,2,dogs,sarah,NA,doberman,NA,yes,Please label the pictures below.,NA,NA,20,NA,NA,NA,warmup/chihuahua.jpg,dogs,some_college,NA,NA,english,male,NA,dogs,NA,3,1571235205628,3,This is a,1,These are both,doberman,NA,NA,warmup1
568,NA,chihuaha,NA,NA,13,warmup/doberman.png,chihuahua,This is a,NA,2,dogs,sarah,NA,doberman,NA,yes,Please label the pictures below.,NA,NA,20,NA,NA,NA,warmup/chihuahua.jpg,dogs,some_college,NA,NA,english,male,NA,dogs,NA,3,1571235205628,4,This is a,1,These are both,doberman,NA,NA,warmup1
568,NA,chihuaha,NA,NA,13,warmup/doberman.png,chihuahua,This is a,NA,2,dogs,sarah,NA,doberman,NA,yes,Please label the pictures below.,NA,NA,20,NA,NA,NA,warmup/chihuahua.jpg,dogs,some_college,NA,NA,english,male,NA,dogs,NA,3,1571235205628,5,This is a,1,These are both,doberman,NA,NA,warmup1
568,NA,chihuaha,NA,NA,13,warmup/doberman.png,chihuahua,This is a,NA,2,dogs,sarah,NA,doberman,NA,yes,Please label the pictures below.,NA,NA,20,NA,NA,NA,warmup/chihuahua.jpg,dogs,some_college,NA,NA,english,male,NA,dogs,NA,3,1571235205628,6,This is a,1,These are both,doberman,NA,NA,warmup1
568,NA,chihuahua,NA,NA,13,warmup/doberman.png,chihuahua,This is a,NA,2,dogs,sarah,NA,doberman,NA,yes,Please label the pictures below.,NA,NA,20,NA,NA,NA,warmup/chihuahua.jpg,dogs,some_college,NA,NA,english,male,NA,dogs,NA,3,1571235205628,7,This is a,1,These are both,doberman,NA,NA,warmup1
568,What do you think your friend meant?,NA,It is big relative to other,images/tree-parade-basic.png,13,NA,NA,NA,NA,2,trees,sarah,NA,NA,0,yes,"You and your friend see another  redwood (not pictured), and your friend says: <br/><b>That's a big one.</b>",prenominal,NA,20,bonsais,NA,2,NA,NA,some_college,big,NA,english,male,NA,NA,You and your friend see the following:,1,1571235205628,NA,NA,1,NA,NA,NA,basic,custom_main_text1
568,What do you think your friend meant?,NA,It is small relative to other,images/dog-parade-chihuahua.png,13,NA,NA,NA,NA,2,dogs1,sarah,NA,NA,1,yes,"You and your friend see another  chihuahua (not pictured), and your friend says: <br/><b>That's a small one.</b>",prenominal,NA,20,dogs,NA,2,NA,NA,some_college,small,NA,english,male,NA,NA,You and your friend see the following:,2,1571235205628,NA,NA,1,NA,NA,NA,congr,custom_main_text1
568,What do you think your friend meant?,NA,It is big relative to other,images/flower-parade-sunflower.png,13,NA,NA,NA,NA,2,flowers,sarah,NA,NA,1,yes,"You and your friend see another  sunflower (not pictured), and your friend says: <br/><b>That's a big flower.</b>",prenominal,NA,20,flowers,NA,0,NA,NA,some_college,big,NA,english,male,NA,NA,You and your friend see the following:,3,1571235205628,NA,NA,1,NA,NA,NA,congr,custom_main_text1
568,NA,bulldog,NA,NA,13,warmup/great-dane.jpg,pug,This is a,NA,2,dogs,sarah,NA,great dane,NA,yes,Please label the pictures below.,NA,NA,20,NA,NA,NA,warmup/pug.jpg,dogs,some_college,NA,NA,english,male,NA,dogs,NA,1,1571235205628,1,This is a,1,These are both,dog,NA,NA,warmup2
568,NA,pug,NA,NA,13,warmup/great-dane.jpg,pug,This is a,NA,2,dogs,sarah,NA,great dane,NA,yes,Please label the pictures below.,NA,NA,20,NA,NA,NA,warmup/pug.jpg,dogs,some_college,NA,NA,english,male,NA,dogs,NA,1,1571235205628,2,This is a,1,These are both,great dane,NA,NA,warmup2
568,NA,s\ns,NA,NA,13,warmup/eagle.jpg,hummingbird,This is a,NA,2,birds,sarah,NA,eagle,NA,yes,Please label the pictures below.,NA,NA,20,NA,NA,NA,warmup/colibri.jpg,birds,some_college,NA,NA,english,male,NA,birds,NA,2,1571235205628,1,This is an,1,These are both,eagle,NA,NA,warmup2
568,NA,hummingbird,NA,NA,13,warmup/eagle.jpg,hummingbird,This is a,NA,2,birds,sarah,NA,eagle,NA,yes,Please label the pictures below.,NA,NA,20,NA,NA,NA,warmup/colibri.jpg,birds,some_college,NA,NA,english,male,NA,birds,NA,2,1571235205628,2,This is an,1,These are both,eagle,NA,NA,warmup2
568,NA,swordfish,NA,NA,13,warmup/goldfish.png,swordfish,This is a,NA,2,fish,sarah,NA,goldfish,NA,yes,Please label the pictures below.,NA,NA,20,NA,NA,NA,warmup/swordfish.jpg,fish,some_college,NA,NA,english,male,NA,fish,NA,3,1571235205628,1,This is a,1,These are both,goldfish,NA,NA,warmup2
568,Please rephrase your friend's comment.,NA,It is small relative to other,images/fish-parade-basic.png,13,NA,NA,NA,NA,2,fish,sarah,NA,NA,0,yes,"You and your friend see another  goldfish (not pictured), and your friend says: <br/><b>That's a small goldfish.</b>",prenominal,NA,20,goldfish,NA,1,NA,NA,some_college,small,NA,english,male,NA,NA,You and your friend see the following:,1,1571235205628,NA,NA,1,NA,NA,NA,basic,custom_main_text2
568,What do you think your friend meant?,NA,It is small relative to other,images/bird-parade-hummingbird.png,13,NA,NA,NA,NA,2,birds,sarah,NA,NA,1,yes,"You and your friend see another  hummingbird (not pictured), and your friend says: <br/><b>That's a small bird.</b>",prenominal,NA,20,birds,NA,0,NA,NA,some_college,small,NA,english,male,NA,NA,You and your friend see the following:,2,1571235205628,NA,NA,1,NA,NA,NA,congr,custom_main_text2
568,What do you think your friend meant?,NA,It is big relative to other,images/dog-parade-basic2.png,13,NA,NA,NA,NA,2,dogs2,sarah,NA,NA,0,yes,"You and your friend see another  great dane (not pictured), and your friend says: <br/><b>That's a big great dane.</b>",prenominal,NA,20,grat danes,NA,1,NA,NA,some_college,big,NA,english,male,NA,NA,You and your friend see the following:,3,1571235205628,NA,NA,1,NA,NA,NA,basic,custom_main_text2
567,<i>What do you think Speaker A meant? </i>,NA,The Empire State Building is tall relative to other,NA,13,NA,NA,NA,no,1,NA,margaret,1,NA,NA,yes,NA,NA,"<b> Speaker A: ""The Empire State Building is tall.""</b>",36,buildings,NA,NA,NA,NA,graduated_college,NA,comp_class_warmup,english,male,NA,NA,In the main trials you will be asked to rephrase something a person said. The utterance will contain a word that is <i>relative</i> and your task is to figure out what it is relative to. <br /> <br /> For example: <br /><br />,1,1571235111446,1,NA,1,NA,NA,"buildings, scyscrapers, houses, constructions (choose one)",NA,comp_class_warmup
567,NA,dandelion,NA,NA,13,warmup/sunflower.png,dandelion,This is a,no,1,flowers,margaret,NA,sunflower,NA,yes,Please label the pictures below.,NA,NA,36,NA,NA,NA,warmup/dandelion.jpg,flowers,graduated_college,NA,NA,english,male,NA,flowers,NA,1,1571235111446,1,This is a,1,These are both,sunflower,NA,NA,warmup1
567,NA,pug,NA,NA,13,warmup/great-dane.jpg,pug,This is a,no,1,dogs,margaret,NA,great dane,NA,yes,Please label the pictures below.,NA,NA,36,NA,NA,NA,warmup/pug.jpg,dogs,graduated_college,NA,NA,english,male,NA,dogs,NA,2,1571235111446,1,This is a,1,These are both,great dane,NA,NA,warmup1
567,NA,hummingbird,NA,NA,13,warmup/eagle.jpg,hummingbird,This is a,no,1,birds,margaret,NA,eagle,NA,yes,Please label the pictures below.,NA,NA,36,NA,NA,NA,warmup/colibri.jpg,birds,graduated_college,NA,NA,english,male,NA,birds,NA,3,1571235111446,1,This is an,1,These are both,eagle,NA,NA,warmup1
567,What do you think your friend meant?,NA,It is small relative to other,images/bird-parade-hummingbird.png,13,NA,NA,NA,no,1,birds,margaret,NA,NA,1,yes,"You and your friend see another  hummingbird (not pictured), and your friend says: <br/><b>That's a small hummingbird.</b>",prenominal,NA,36,hummingbirds,NA,1,NA,NA,graduated_college,small,NA,english,male,NA,NA,You and your friend see the following:,1,1571235111446,NA,NA,1,NA,NA,NA,congr,custom_main_text1
567,What do you think your friend meant?,NA,It is small relative to other,images/dog-parade-basic2.png,13,NA,NA,NA,no,1,dogs2,margaret,NA,NA,0,yes,"You and your friend see another  pug (not pictured), and your friend says: <br/><b>That's a small pug.</b>",prenominal,NA,36,pugs,NA,1,NA,NA,graduated_college,small,NA,english,male,NA,NA,You and your friend see the following:,2,1571235111446,NA,NA,1,NA,NA,NA,basic,custom_main_text1
567,What do you think your friend meant?,NA,It is big relative to other,images/flower-parade-basic.png,13,NA,NA,NA,no,1,flowers,margaret,NA,NA,0,yes,"You and your friend see another  sunflower (not pictured), and your friend says: <br/><b>That's a big flower.</b>",prenominal,NA,36,flowers,NA,0,NA,NA,graduated_college,big,NA,english,male,NA,NA,You and your friend see the following:,3,1571235111446,NA,NA,1,NA,NA,NA,basic,custom_main_text1
567,NA,redwood,NA,NA,13,warmup/bonsai.jpg,redwood or sequoia (choose one),This is a,no,1,trees,margaret,NA,bonsai,NA,yes,Please label the pictures below.,NA,NA,36,NA,NA,NA,warmup/sequoia.png,trees,graduated_college,NA,NA,english,male,NA,trees,NA,1,1571235111446,1,This is a,1,These are both,bonsai,NA,NA,warmup2
567,NA,chihuahua,NA,NA,13,warmup/doberman.png,chihuahua,This is a,no,1,dogs,margaret,NA,doberman,NA,yes,Please label the pictures below.,NA,NA,36,NA,NA,NA,warmup/chihuahua.jpg,dogs,graduated_college,NA,NA,english,male,NA,dogs,NA,2,1571235111446,1,This is a,1,These are both,doberman,NA,NA,warmup2
567,NA,marlin,NA,NA,13,warmup/goldfish.png,swordfish,This is a,no,1,fish,margaret,NA,goldfish,NA,yes,Please label the pictures below.,NA,NA,36,NA,NA,NA,warmup/swordfish.jpg,fish,graduated_college,NA,NA,english,male,NA,fish,NA,3,1571235111446,1,This is a,1,These are both,goldfish,NA,NA,warmup2
567,NA,swordfiah,NA,NA,13,warmup/goldfish.png,swordfish,This is a,no,1,fish,margaret,NA,goldfish,NA,yes,Please label the pictures below.,NA,NA,36,NA,NA,NA,warmup/swordfish.jpg,fish,graduated_college,NA,NA,english,male,NA,fish,NA,3,1571235111446,2,This is a,1,These are both,goldfish,NA,NA,warmup2
567,NA,swordfish,NA,NA,13,warmup/goldfish.png,swordfish,This is a,no,1,fish,margaret,NA,goldfish,NA,yes,Please label the pictures below.,NA,NA,36,NA,NA,NA,warmup/swordfish.jpg,fish,graduated_college,NA,NA,english,male,NA,fish,NA,3,1571235111446,3,This is a,1,These are both,goldfish,NA,NA,warmup2
567,Please rephrase your friend's comment.,NA,It is small relative to other,images/fish-parade-basic.png,13,NA,NA,NA,no,1,fish,margaret,NA,NA,0,yes,"You and your friend see another  goldfish (not pictured), and your friend says: <br/><b>That's a small one.</b>",prenominal,NA,36,fish,NA,2,NA,NA,graduated_college,small,NA,english,male,NA,NA,You and your friend see the following:,1,1571235111446,NA,NA,1,NA,NA,NA,basic,custom_main_text2
567,What do you think your friend meant?,NA,It is big relative to other,images/dog-parade-doberman.png,13,NA,NA,NA,no,1,dogs1,margaret,NA,NA,1,yes,"You and your friend see another  doberman (not pictured), and your friend says: <br/><b>That's a big dog.</b>",prenominal,NA,36,dogs,NA,0,NA,NA,graduated_college,big,NA,english,male,NA,NA,You and your friend see the following:,2,1571235111446,NA,NA,1,NA,NA,NA,congr,custom_main_text2
567,What do you think your friend meant?,NA,It is big relative to other,images/tree-parade-redwood.png,13,NA,NA,NA,no,1,trees,margaret,NA,NA,1,yes,"You and your friend see another  redwood (not pictured), and your friend says: <br/><b>That's a big one.</b>",prenominal,NA,36,trees,NA,2,NA,NA,graduated_college,big,NA,english,male,NA,NA,You and your friend see the following:,3,1571235111446,NA,NA,1,NA,NA,NA,congr,custom_main_text2
561,<i>What do you think Speaker A meant? </i>,NA,The Empire State Building is tall relative to other,NA,13,NA,NA,NA,No,2,NA,Sarah,1,NA,NA,yes,NA,NA,"<b> Speaker A: ""The Empire State Building is tall.""</b>",28,buildings,N/A,NA,NA,NA,some_college,NA,comp_class_warmup,English,male,NA,NA,In the main trials you will be asked to rephrase something a person said. The utterance will contain a word that is <i>relative</i> and your task is to figure out what it is relative to. <br /> <br /> For example: <br /><br />,1,1571234969705,1,NA,1.5,NA,NA,"buildings, scyscrapers, houses, constructions (choose one)",NA,comp_class_warmup
561,NA,tree,NA,NA,13,warmup/bonsai.jpg,redwood or sequoia (choose one),This is a,No,2,trees,Sarah,NA,bonsai,NA,yes,Please label the pictures below.,NA,NA,28,NA,N/A,NA,warmup/sequoia.png,plants,some_college,NA,NA,English,male,NA,trees,NA,1,1571234969705,1,This is a,1.5,These are both,shrub,NA,NA,warmup1
561,NA,redwood,NA,NA,13,warmup/bonsai.jpg,redwood or sequoia (choose one),This is a,No,2,trees,Sarah,NA,bonsai,NA,yes,Please label the pictures below.,NA,NA,28,NA,N/A,NA,warmup/sequoia.png,tree,some_college,NA,NA,English,male,NA,trees,NA,1,1571234969705,2,This is a,1.5,These are both,bonsai,NA,NA,warmup1
561,NA,redwood,NA,NA,13,warmup/bonsai.jpg,redwood or sequoia (choose one),This is a,No,2,trees,Sarah,NA,bonsai,NA,yes,Please label the pictures below.,NA,NA,28,NA,N/A,NA,warmup/sequoia.png,trees,some_college,NA,NA,English,male,NA,trees,NA,1,1571234969705,3,This is a,1.5,These are both,bonsai,NA,NA,warmup1
561,NA,hummingbird,NA,NA,13,warmup/eagle.jpg,hummingbird,This is a,No,2,birds,Sarah,NA,eagle,NA,yes,Please label the pictures below.,NA,NA,28,NA,N/A,NA,warmup/colibri.jpg,birds,some_college,NA,NA,English,male,NA,birds,NA,2,1571234969705,1,This is an,1.5,These are both,bald eagle,NA,NA,warmup1
561,NA,hummingbird,NA,NA,13,warmup/eagle.jpg,hummingbird,This is a,No,2,birds,Sarah,NA,eagle,NA,yes,Please label the pictures below.,NA,NA,28,NA,N/A,NA,warmup/colibri.jpg,birds,some_college,NA,NA,English,male,NA,birds,NA,2,1571234969705,2,This is an,1.5,These are both,eagle,NA,NA,warmup1
561,NA,chihuahua,NA,NA,13,warmup/doberman.png,chihuahua,This is a,No,2,dogs,Sarah,NA,doberman,NA,yes,Please label the pictures below.,NA,NA,28,NA,N/A,NA,warmup/chihuahua.jpg,dogs,some_college,NA,NA,English,male,NA,dogs,NA,3,1571234969705,1,This is a,1.5,These are both,doberman,NA,NA,warmup1
561,What do you think your friend meant?,NA,It is big relative to other,images/tree-parade-redwood.png,13,NA,NA,NA,No,2,trees,Sarah,NA,NA,1,yes,"You and your friend see another  redwood (not pictured), and your friend says: <br/><b>That's a big redwood.</b>",prenominal,NA,28,trees,N/A,1,NA,NA,some_college,big,NA,English,male,NA,NA,You and your friend see the following:,1,1571234969705,NA,NA,1.5,NA,NA,NA,congr,custom_main_text1
561,What do you think your friend meant?,NA,It is small relative to other,images/bird-parade-basic.png,13,NA,NA,NA,No,2,birds,Sarah,NA,NA,0,yes,"You and your friend see another  hummingbird (not pictured), and your friend says: <br/><b>That's a small one.</b>",prenominal,NA,28,birds,N/A,2,NA,NA,some_college,small,NA,English,male,NA,NA,You and your friend see the following:,2,1571234969705,NA,NA,1.5,NA,NA,NA,basic,custom_main_text1
561,What do you think your friend meant?,NA,It is small relative to other,images/dog-parade-chihuahua.png,13,NA,NA,NA,No,2,dogs1,Sarah,NA,NA,1,yes,"You and your friend see another  chihuahua (not pictured), and your friend says: <br/><b>That's a small dog.</b>",prenominal,NA,28,dogs,N/A,0,NA,NA,some_college,small,NA,English,male,NA,NA,You and your friend see the following:,3,1571234969705,NA,NA,1.5,NA,NA,NA,congr,custom_main_text1
561,NA,flower,NA,NA,13,warmup/sunflower.png,dandelion,This is a,No,2,flowers,Sarah,NA,sunflower,NA,yes,Please label the pictures below.,NA,NA,28,NA,N/A,NA,warmup/dandelion.jpg,flowers,some_college,NA,NA,English,male,NA,flowers,NA,1,1571234969705,1,This is a,1.5,These are both,sunflower,NA,NA,warmup2
561,NA,dandelion,NA,NA,13,warmup/sunflower.png,dandelion,This is a,No,2,flowers,Sarah,NA,sunflower,NA,yes,Please label the pictures below.,NA,NA,28,NA,N/A,NA,warmup/dandelion.jpg,flowers,some_college,NA,NA,English,male,NA,flowers,NA,1,1571234969705,2,This is a,1.5,These are both,sunflower,NA,NA,warmup2
561,NA,swordfish,NA,NA,13,warmup/goldfish.png,swordfish,This is a,No,2,fish,Sarah,NA,goldfish,NA,yes,Please label the pictures below.,NA,NA,28,NA,N/A,NA,warmup/swordfish.jpg,fish,some_college,NA,NA,English,male,NA,fish,NA,2,1571234969705,1,This is a,1.5,These are both,goldfish,NA,NA,warmup2
561,NA,pug,NA,NA,13,warmup/great-dane.jpg,pug,This is a,No,2,dogs,Sarah,NA,great dane,NA,yes,Please label the pictures below.,NA,NA,28,NA,N/A,NA,warmup/pug.jpg,dogs,some_college,NA,NA,English,male,NA,dogs,NA,3,1571234969705,1,This is a,1.5,These are both,great dane,NA,NA,warmup2
561,Please rephrase your friend's comment.,NA,It is big relative to other,images/fish-parade-swordfish.png,13,NA,NA,NA,No,2,fish,Sarah,NA,NA,1,yes,"You and your friend see another  swordfish (not pictured), and your friend says: <br/><b>That's a big swordfish.</b>",prenominal,NA,28,fish,N/A,1,NA,NA,some_college,big,NA,English,male,NA,NA,You and your friend see the following:,1,1571234969705,NA,NA,1.5,NA,NA,NA,congr,custom_main_text2
561,What do you think your friend meant?,NA,It is small relative to other,images/flower-parade-basic.png,13,NA,NA,NA,No,2,flowers,Sarah,NA,NA,0,yes,"You and your friend see another  dandelion (not pictured), and your friend says: <br/><b>That's a small one.</b>",prenominal,NA,28,flowers,N/A,2,NA,NA,some_college,small,NA,English,male,NA,NA,You and your friend see the following:,2,1571234969705,NA,NA,1.5,NA,NA,NA,basic,custom_main_text2
561,What do you think your friend meant?,NA,It is big relative to other,images/dog-parade-basic2.png,13,NA,NA,NA,No,2,dogs2,Sarah,NA,NA,0,yes,"You and your friend see another  great dane (not pictured), and your friend says: <br/><b>That's a big dog.</b>",prenominal,NA,28,dogs,N/A,0,NA,NA,some_college,big,NA,English,male,NA,NA,You and your friend see the following:,3,1571234969705,NA,NA,1.5,NA,NA,NA,basic,custom_main_text2
560,<i>What do you think Speaker A meant? </i>,NA,The Empire State Building is tall relative to other,NA,13,NA,NA,NA,none,2,NA,patricia,1,NA,NA,yes,NA,NA,"<b> Speaker A: ""The Empire State Building is tall.""</b>",28,buildings,none,NA,NA,NA,some_college,NA,comp_class_warmup,English,male,NA,NA,In the main trials you will be asked to rephrase something a person said. The utterance will contain a word that is <i>relative</i> and your task is to figure out what it is relative to. <br /> <br /> For example: <br /><br />,1,1571234447844,1,NA,1,NA,NA,"buildings, scyscrapers, houses, constructions (choose one)",NA,comp_class_warmup
560,NA,hummingbird,NA,NA,13,warmup/eagle.jpg,hummingbird,This is a,none,2,birds,patricia,NA,eagle,NA,yes,Please label the pictures below.,NA,NA,28,NA,none,NA,warmup/colibri.jpg,birds,some_college,NA,NA,English,male,NA,birds,NA,1,1571234447844,1,This is an,1,These are both,eagle,NA,NA,warmup1
560,NA,tree,NA,NA,13,warmup/bonsai.jpg,redwood or sequoia (choose one),This is a,none,2,trees,patricia,NA,bonsai,NA,yes,Please label the pictures below.,NA,NA,28,NA,none,NA,warmup/sequoia.png,plants,some_college,NA,NA,English,male,NA,trees,NA,2,1571234447844,1,This is a,1,These are both,seedling,NA,NA,warmup1
560,NA,redwood,NA,NA,13,warmup/bonsai.jpg,redwood or sequoia (choose one),This is a,none,2,trees,patricia,NA,bonsai,NA,yes,Please label the pictures below.,NA,NA,28,NA,none,NA,warmup/sequoia.png,trees,some_college,NA,NA,English,male,NA,trees,NA,2,1571234447844,2,This is a,1,These are both,bonsai,NA,NA,warmup1
560,NA,chihuahua,NA,NA,13,warmup/doberman.png,chihuahua,This is a,none,2,dogs,patricia,NA,doberman,NA,yes,Please label the pictures below.,NA,NA,28,NA,none,NA,warmup/chihuahua.jpg,dogs,some_college,NA,NA,English,male,NA,dogs,NA,3,1571234447844,1,This is a,1,These are both,doberman pinscher,NA,NA,warmup1
560,NA,chihuahua,NA,NA,13,warmup/doberman.png,chihuahua,This is a,none,2,dogs,patricia,NA,doberman,NA,yes,Please label the pictures below.,NA,NA,28,NA,none,NA,warmup/chihuahua.jpg,dogs,some_college,NA,NA,English,male,NA,dogs,NA,3,1571234447844,2,This is a,1,These are both,doberman,NA,NA,warmup1
560,What do you think your friend meant?,NA,It is small relative to other,images/bird-parade-hummingbird.png,13,NA,NA,NA,none,2,birds,patricia,NA,NA,1,yes,"You and your friend see another  hummingbird (not pictured), and your friend says: <br/><b>That's a small one.</b>",prenominal,NA,28,hummingirds,none,2,NA,NA,some_college,small,NA,English,male,NA,NA,You and your friend see the following:,1,1571234447844,NA,NA,1,NA,NA,NA,congr,custom_main_text1
560,What do you think your friend meant?,NA,It is big relative to other,images/dog-parade-doberman.png,13,NA,NA,NA,none,2,dogs1,patricia,NA,NA,1,yes,"You and your friend see another  doberman (not pictured), and your friend says: <br/><b>That's a big dog.</b>",prenominal,NA,28,dogs,none,0,NA,NA,some_college,big,NA,English,male,NA,NA,You and your friend see the following:,2,1571234447844,NA,NA,1,NA,NA,NA,congr,custom_main_text1
560,What do you think your friend meant?,NA,It is small relative to other,images/tree-parade-basic.png,13,NA,NA,NA,none,2,trees,patricia,NA,NA,0,yes,"You and your friend see another  bonsai (not pictured), and your friend says: <br/><b>That's a small one.</b>",prenominal,NA,28,trees,none,2,NA,NA,some_college,small,NA,English,male,NA,NA,You and your friend see the following:,3,1571234447844,NA,NA,1,NA,NA,NA,basic,custom_main_text1
560,NA,dandelion,NA,NA,13,warmup/sunflower.png,dandelion,This is a,none,2,flowers,patricia,NA,sunflower,NA,yes,Please label the pictures below.,NA,NA,28,NA,none,NA,warmup/dandelion.jpg,flowers,some_college,NA,NA,English,male,NA,flowers,NA,1,1571234447844,1,This is a,1,These are both,sunflower,NA,NA,warmup2
560,NA,pug,NA,NA,13,warmup/great-dane.jpg,pug,This is a,none,2,dogs,patricia,NA,great dane,NA,yes,Please label the pictures below.,NA,NA,28,NA,none,NA,warmup/pug.jpg,dogs,some_college,NA,NA,English,male,NA,dogs,NA,2,1571234447844,1,This is a,1,These are both,labrador,NA,NA,warmup2
560,NA,pug,NA,NA,13,warmup/great-dane.jpg,pug,This is a,none,2,dogs,patricia,NA,great dane,NA,yes,Please label the pictures below.,NA,NA,28,NA,none,NA,warmup/pug.jpg,dogs,some_college,NA,NA,English,male,NA,dogs,NA,2,1571234447844,2,This is a,1,These are both,great dane,NA,NA,warmup2
560,NA,marlin,NA,NA,13,warmup/goldfish.png,swordfish,This is a,none,2,fish,patricia,NA,goldfish,NA,yes,Please label the pictures below.,NA,NA,28,NA,none,NA,warmup/swordfish.jpg,fish,some_college,NA,NA,English,male,NA,fish,NA,3,1571234447844,1,This is a,1,These are both,goldfish,NA,NA,warmup2
560,NA,swordfish,NA,NA,13,warmup/goldfish.png,swordfish,This is a,none,2,fish,patricia,NA,goldfish,NA,yes,Please label the pictures below.,NA,NA,28,NA,none,NA,warmup/swordfish.jpg,fish,some_college,NA,NA,English,male,NA,fish,NA,3,1571234447844,2,This is a,1,These are both,goldfish,NA,NA,warmup2
560,What do you think your friend meant?,NA,It is small relative to other,images/flower-parade-basic.png,13,NA,NA,NA,none,2,flowers,patricia,NA,NA,0,yes,"You and your friend see another  dandelion (not pictured), and your friend says: <br/><b>That's a small dandelion.</b>",prenominal,NA,28,dandelions,none,1,NA,NA,some_college,small,NA,English,male,NA,NA,You and your friend see the following:,1,1571234447844,NA,NA,1,NA,NA,NA,basic,custom_main_text2
560,Please rephrase your friend's comment.,NA,It is big relative to other,images/fish-parade-basic.png,13,NA,NA,NA,none,2,fish,patricia,NA,NA,0,yes,"You and your friend see another  swordfish (not pictured), and your friend says: <br/><b>That's a big fish.</b>",prenominal,NA,28,fish,none,0,NA,NA,some_college,big,NA,English,male,NA,NA,You and your friend see the following:,2,1571234447844,NA,NA,1,NA,NA,NA,basic,custom_main_text2
560,What do you think your friend meant?,NA,It is big relative to other,images/dog-parade-great-dane.png,13,NA,NA,NA,none,2,dogs2,patricia,NA,NA,1,yes,"You and your friend see another  great dane (not pictured), and your friend says: <br/><b>That's a big great dane.</b>",prenominal,NA,28,great danes,none,1,NA,NA,some_college,big,NA,English,male,NA,NA,You and your friend see the following:,3,1571234447844,NA,NA,1,NA,NA,NA,congr,custom_main_text2
558,<i>What do you think Speaker A meant? </i>,NA,The Empire State Building is tall relative to other,NA,13,NA,NA,NA,none,2,NA,Susan,1,NA,NA,yes,NA,NA,"<b> Speaker A: ""The Empire State Building is tall.""</b>",41,buildings,NA,NA,NA,NA,graduated_high_school,NA,comp_class_warmup,English,female,NA,NA,In the main trials you will be asked to rephrase something a person said. The utterance will contain a word that is <i>relative</i> and your task is to figure out what it is relative to. <br /> <br /> For example: <br /><br />,1,1571234476950,1,NA,0.75,NA,NA,"buildings, scyscrapers, houses, constructions (choose one)",NA,comp_class_warmup
558,NA,puppy,NA,NA,13,warmup/doberman.png,chihuahua,This is a,none,2,dogs,Susan,NA,doberman,NA,yes,Please label the pictures below.,NA,NA,41,NA,NA,NA,warmup/chihuahua.jpg,dogs,graduated_high_school,NA,NA,English,female,NA,dogs,NA,1,1571234476950,1,This is a,0.75,These are both,dog,NA,NA,warmup1
558,NA,puppy,NA,NA,13,warmup/doberman.png,chihuahua,This is a,none,2,dogs,Susan,NA,doberman,NA,yes,Please label the pictures below.,NA,NA,41,NA,NA,NA,warmup/chihuahua.jpg,dogs,graduated_high_school,NA,NA,English,female,NA,dogs,NA,1,1571234476950,2,This is a,0.75,These are both,dog,NA,NA,warmup1
558,NA,chihuahua,NA,NA,13,warmup/doberman.png,chihuahua,This is a,none,2,dogs,Susan,NA,doberman,NA,yes,Please label the pictures below.,NA,NA,41,NA,NA,NA,warmup/chihuahua.jpg,dogs,graduated_high_school,NA,NA,English,female,NA,dogs,NA,1,1571234476950,3,This is a,0.75,These are both,doberman,NA,NA,warmup1
558,NA,maple tree,NA,NA,13,warmup/bonsai.jpg,redwood or sequoia (choose one),This is a,none,2,trees,Susan,NA,bonsai,NA,yes,Please label the pictures below.,NA,NA,41,NA,NA,NA,warmup/sequoia.png,trees,graduated_high_school,NA,NA,English,female,NA,trees,NA,2,1571234476950,1,This is a,0.75,These are both,bonsai tree,NA,NA,warmup1
558,NA,redwood,NA,NA,13,warmup/bonsai.jpg,redwood or sequoia (choose one),This is a,none,2,trees,Susan,NA,bonsai,NA,yes,Please label the pictures below.,NA,NA,41,NA,NA,NA,warmup/sequoia.png,trees,graduated_high_school,NA,NA,English,female,NA,trees,NA,2,1571234476950,2,This is a,0.75,These are both,bonsai,NA,NA,warmup1
558,NA,dandilion,NA,NA,13,warmup/sunflower.png,dandelion,This is a,none,2,flowers,Susan,NA,sunflower,NA,yes,Please label the pictures below.,NA,NA,41,NA,NA,NA,warmup/dandelion.jpg,flowers,graduated_high_school,NA,NA,English,female,NA,flowers,NA,3,1571234476950,1,This is a,0.75,These are both,daisy,NA,NA,warmup1
558,NA,dandelion,NA,NA,13,warmup/sunflower.png,dandelion,This is a,none,2,flowers,Susan,NA,sunflower,NA,yes,Please label the pictures below.,NA,NA,41,NA,NA,NA,warmup/dandelion.jpg,flowers,graduated_high_school,NA,NA,English,female,NA,flowers,NA,3,1571234476950,2,This is a,0.75,These are both,sunflower,NA,NA,warmup1
558,What do you think your friend meant?,NA,It is big relative to other,images/tree-parade-redwood.png,13,NA,NA,NA,none,2,trees,Susan,NA,NA,1,yes,"You and your friend see another  redwood (not pictured), and your friend says: <br/><b>That's a big one.</b>",prenominal,NA,41,redwoods,NA,2,NA,NA,graduated_high_school,big,NA,English,female,NA,NA,You and your friend see the following:,1,1571234476950,NA,NA,0.75,NA,NA,NA,congr,custom_main_text1
558,What do you think your friend meant?,NA,It is big relative to other,images/flower-parade-basic.png,13,NA,NA,NA,none,2,flowers,Susan,NA,NA,0,yes,"You and your friend see another  sunflower (not pictured), and your friend says: <br/><b>That's a big sunflower.</b>",prenominal,NA,41,sunflowers,NA,1,NA,NA,graduated_high_school,big,NA,English,female,NA,NA,You and your friend see the following:,2,1571234476950,NA,NA,0.75,NA,NA,NA,basic,custom_main_text1
558,What do you think your friend meant?,NA,It is big relative to other,images/dog-parade-doberman.png,13,NA,NA,NA,none,2,dogs1,Susan,NA,NA,1,yes,"You and your friend see another  doberman (not pictured), and your friend says: <br/><b>That's a big dog.</b>",prenominal,NA,41,dogs,NA,0,NA,NA,graduated_high_school,big,NA,English,female,NA,NA,You and your friend see the following:,3,1571234476950,NA,NA,0.75,NA,NA,NA,congr,custom_main_text1
558,NA,swordfish,NA,NA,13,warmup/goldfish.png,swordfish,This is a,none,2,fish,Susan,NA,goldfish,NA,yes,Please label the pictures below.,NA,NA,41,NA,NA,NA,warmup/swordfish.jpg,fish,graduated_high_school,NA,NA,English,female,NA,fish,NA,1,1571234476950,1,This is a,0.75,These are both,goldfish,NA,NA,warmup2
558,NA,hummingbird,NA,NA,13,warmup/eagle.jpg,hummingbird,This is a,none,2,birds,Susan,NA,eagle,NA,yes,Please label the pictures below.,NA,NA,41,NA,NA,NA,warmup/colibri.jpg,birds,graduated_high_school,NA,NA,English,female,NA,birds,NA,2,1571234476950,1,This is an,0.75,These are both,eagle,NA,NA,warmup2
558,NA,pug,NA,NA,13,warmup/great-dane.jpg,pug,This is a,none,2,dogs,Susan,NA,great dane,NA,yes,Please label the pictures below.,NA,NA,41,NA,NA,NA,warmup/pug.jpg,dogs,graduated_high_school,NA,NA,English,female,NA,dogs,NA,3,1571234476950,1,This is a,0.75,These are both,labrador,NA,NA,warmup2
558,NA,pug,NA,NA,13,warmup/great-dane.jpg,pug,This is a,none,2,dogs,Susan,NA,great dane,NA,yes,Please label the pictures below.,NA,NA,41,NA,NA,NA,warmup/pug.jpg,dogs,graduated_high_school,NA,NA,English,female,NA,dogs,NA,3,1571234476950,2,This is a,0.75,These are both,dane,NA,NA,warmup2
558,NA,pug,NA,NA,13,warmup/great-dane.jpg,pug,This is a,none,2,dogs,Susan,NA,great dane,NA,yes,Please label the pictures below.,NA,NA,41,NA,NA,NA,warmup/pug.jpg,dogs,graduated_high_school,NA,NA,English,female,NA,dogs,NA,3,1571234476950,3,This is a,0.75,These are both,dane,NA,NA,warmup2
558,NA,pug,NA,NA,13,warmup/great-dane.jpg,pug,This is a,none,2,dogs,Susan,NA,great dane,NA,yes,Please label the pictures below.,NA,NA,41,NA,NA,NA,warmup/pug.jpg,dogs,graduated_high_school,NA,NA,English,female,NA,dogs,NA,3,1571234476950,4,This is a,0.75,These are both,great dane,NA,NA,warmup2
558,Please rephrase your friend's comment.,NA,It is small relative to other,images/fish-parade-basic.png,13,NA,NA,NA,none,2,fish,Susan,NA,NA,0,yes,"You and your friend see another  goldfish (not pictured), and your friend says: <br/><b>That's a small goldfish.</b>",prenominal,NA,41,goldfish,NA,1,NA,NA,graduated_high_school,small,NA,English,female,NA,NA,You and your friend see the following:,1,1571234476950,NA,NA,0.75,NA,NA,NA,basic,custom_main_text2
558,What do you think your friend meant?,NA,It is small relative to other,images/bird-parade-basic.png,13,NA,NA,NA,none,2,birds,Susan,NA,NA,0,yes,"You and your friend see another  hummingbird (not pictured), and your friend says: <br/><b>That's a small bird.</b>",prenominal,NA,41,birds,NA,0,NA,NA,graduated_high_school,small,NA,English,female,NA,NA,You and your friend see the following:,2,1571234476950,NA,NA,0.75,NA,NA,NA,basic,custom_main_text2
558,What do you think your friend meant?,NA,It is small relative to other,images/dog-parade-pug.png,13,NA,NA,NA,none,2,dogs2,Susan,NA,NA,1,yes,"You and your friend see another  pug (not pictured), and your friend says: <br/><b>That's a small one.</b>",prenominal,NA,41,pugs,NA,2,NA,NA,graduated_high_school,small,NA,English,female,NA,NA,You and your friend see the following:,3,1571234476950,NA,NA,0.75,NA,NA,NA,congr,custom_main_text2
557,<i>What do you think Speaker A meant? </i>,NA,The Empire State Building is tall relative to other,NA,13,NA,NA,NA,None,0,NA,sarah,1,NA,NA,confused,NA,NA,"<b> Speaker A: ""The Empire State Building is tall.""</b>",24,buildings,None,NA,NA,NA,graduated_high_school,NA,comp_class_warmup,english,male,NA,NA,In the main trials you will be asked to rephrase something a person said. The utterance will contain a word that is <i>relative</i> and your task is to figure out what it is relative to. <br /> <br /> For example: <br /><br />,1,1571234475421,1,NA,1.5,NA,NA,"buildings, scyscrapers, houses, constructions (choose one)",NA,comp_class_warmup
557,NA,puppy,NA,NA,13,warmup/great-dane.jpg,pug,This is a,None,0,dogs,sarah,NA,great dane,NA,confused,Please label the pictures below.,NA,NA,24,NA,None,NA,warmup/pug.jpg,animals,graduated_high_school,NA,NA,english,male,NA,dogs,NA,1,1571234475421,1,This is a,1.5,These are both,dog,NA,NA,warmup1
557,NA,pug,NA,NA,13,warmup/great-dane.jpg,pug,This is a,None,0,dogs,sarah,NA,great dane,NA,confused,Please label the pictures below.,NA,NA,24,NA,None,NA,warmup/pug.jpg,dogs,graduated_high_school,NA,NA,english,male,NA,dogs,NA,1,1571234475421,2,This is a,1.5,These are both,great dane,NA,NA,warmup1
557,NA,fdfdfd,NA,NA,13,warmup/sunflower.png,dandelion,This is a,None,0,flowers,sarah,NA,sunflower,NA,confused,Please label the pictures below.,NA,NA,24,NA,None,NA,warmup/dandelion.jpg,fdfdfd,graduated_high_school,NA,NA,english,male,NA,flowers,NA,2,1571234475421,1,This is a,1.5,These are both,fdfdfd,NA,NA,warmup1
557,NA,dandelion,NA,NA,13,warmup/sunflower.png,dandelion,This is a,None,0,flowers,sarah,NA,sunflower,NA,confused,Please label the pictures below.,NA,NA,24,NA,None,NA,warmup/dandelion.jpg,flowers,graduated_high_school,NA,NA,english,male,NA,flowers,NA,2,1571234475421,2,This is a,1.5,These are both,sunflower,NA,NA,warmup1
557,NA,fdfdfd,NA,NA,13,warmup/goldfish.png,swordfish,This is a,None,0,fish,sarah,NA,goldfish,NA,confused,Please label the pictures below.,NA,NA,24,NA,None,NA,warmup/swordfish.jpg,fdfdfdfd,graduated_high_school,NA,NA,english,male,NA,fish,NA,3,1571234475421,1,This is a,1.5,These are both,fdfdfdfd,NA,NA,warmup1
557,NA,swordfish,NA,NA,13,warmup/goldfish.png,swordfish,This is a,None,0,fish,sarah,NA,goldfish,NA,confused,Please label the pictures below.,NA,NA,24,NA,None,NA,warmup/swordfish.jpg,fish,graduated_high_school,NA,NA,english,male,NA,fish,NA,3,1571234475421,2,This is a,1.5,These are both,goldfish,NA,NA,warmup1
557,What do you think your friend meant?,NA,It is small relative to other,images/dog-parade-pug.png,13,NA,NA,NA,None,0,dogs2,sarah,NA,NA,1,confused,"You and your friend see another  pug (not pictured), and your friend says: <br/><b>That's a small one.</b>",prenominal,NA,24,dogs,None,2,NA,NA,graduated_high_school,small,NA,english,male,NA,NA,You and your friend see the following:,1,1571234475421,NA,NA,1.5,NA,NA,NA,congr,custom_main_text1
557,Please rephrase your friend's comment.,NA,It is big relative to other,images/fish-parade-swordfish.png,13,NA,NA,NA,None,0,fish,sarah,NA,NA,1,confused,"You and your friend see another  swordfish (not pictured), and your friend says: <br/><b>That's a big fish.</b>",prenominal,NA,24,fish,None,0,NA,NA,graduated_high_school,big,NA,english,male,NA,NA,You and your friend see the following:,2,1571234475421,NA,NA,1.5,NA,NA,NA,congr,custom_main_text1
557,What do you think your friend meant?,NA,It is small relative to other,images/flower-parade-basic.png,13,NA,NA,NA,None,0,flowers,sarah,NA,NA,0,confused,"You and your friend see another  dandelion (not pictured), and your friend says: <br/><b>That's a small one.</b>",prenominal,NA,24,flowers,None,2,NA,NA,graduated_high_school,small,NA,english,male,NA,NA,You and your friend see the following:,3,1571234475421,NA,NA,1.5,NA,NA,NA,basic,custom_main_text1
557,NA,puppy,NA,NA,13,warmup/doberman.png,chihuahua,This is a,None,0,dogs,sarah,NA,doberman,NA,confused,Please label the pictures below.,NA,NA,24,NA,None,NA,warmup/chihuahua.jpg,dogs,graduated_high_school,NA,NA,english,male,NA,dogs,NA,1,1571234475421,1,This is a,1.5,These are both,daschund,NA,NA,warmup2
557,NA,chihuahua,NA,NA,13,warmup/doberman.png,chihuahua,This is a,None,0,dogs,sarah,NA,doberman,NA,confused,Please label the pictures below.,NA,NA,24,NA,None,NA,warmup/chihuahua.jpg,animals,graduated_high_school,NA,NA,english,male,NA,dogs,NA,1,1571234475421,2,This is a,1.5,These are both,doberman,NA,NA,warmup2
557,NA,chihuahua,NA,NA,13,warmup/doberman.png,chihuahua,This is a,None,0,dogs,sarah,NA,doberman,NA,confused,Please label the pictures below.,NA,NA,24,NA,None,NA,warmup/chihuahua.jpg,dogs,graduated_high_school,NA,NA,english,male,NA,dogs,NA,1,1571234475421,3,This is a,1.5,These are both,doberman,NA,NA,warmup2
557,NA,fdfdsfdsfsd,NA,NA,13,warmup/eagle.jpg,hummingbird,This is a,None,0,birds,sarah,NA,eagle,NA,confused,Please label the pictures below.,NA,NA,24,NA,None,NA,warmup/colibri.jpg,fdsfdsfdsfds,graduated_high_school,NA,NA,english,male,NA,birds,NA,2,1571234475421,1,This is an,1.5,These are both,fdsfdsfsd,NA,NA,warmup2
557,NA,hummingbird,NA,NA,13,warmup/eagle.jpg,hummingbird,This is a,None,0,birds,sarah,NA,eagle,NA,confused,Please label the pictures below.,NA,NA,24,NA,None,NA,warmup/colibri.jpg,birds,graduated_high_school,NA,NA,english,male,NA,birds,NA,2,1571234475421,2,This is an,1.5,These are both,eagle,NA,NA,warmup2
557,NA,fdjksjfldjskl,NA,NA,13,warmup/bonsai.jpg,redwood or sequoia (choose one),This is a,None,0,trees,sarah,NA,bonsai,NA,confused,Please label the pictures below.,NA,NA,24,NA,None,NA,warmup/sequoia.png,fjkldsjlkfjdlksf,graduated_high_school,NA,NA,english,male,NA,trees,NA,3,1571234475421,1,This is a,1.5,These are both,jklfjlksfjkdl,NA,NA,warmup2
557,NA,redwood,NA,NA,13,warmup/bonsai.jpg,redwood or sequoia (choose one),This is a,None,0,trees,sarah,NA,bonsai,NA,confused,Please label the pictures below.,NA,NA,24,NA,None,NA,warmup/sequoia.png,trees,graduated_high_school,NA,NA,english,male,NA,trees,NA,3,1571234475421,2,This is a,1.5,These are both,bonsai,NA,NA,warmup2
557,What do you think your friend meant?,NA,It is small relative to other,images/bird-parade-basic.png,13,NA,NA,NA,None,0,birds,sarah,NA,NA,0,confused,"You and your friend see another  hummingbird (not pictured), and your friend says: <br/><b>That's a small hummingbird.</b>",prenominal,NA,24,birds,None,1,NA,NA,graduated_high_school,small,NA,english,male,NA,NA,You and your friend see the following:,1,1571234475421,NA,NA,1.5,NA,NA,NA,basic,custom_main_text2
557,What do you think your friend meant?,NA,It is big relative to other,images/dog-parade-basic.png,13,NA,NA,NA,None,0,dogs1,sarah,NA,NA,0,confused,"You and your friend see another  doberman (not pictured), and your friend says: <br/><b>That's a big dog.</b>",prenominal,NA,24,dogs,None,0,NA,NA,graduated_high_school,big,NA,english,male,NA,NA,You and your friend see the following:,2,1571234475421,NA,NA,1.5,NA,NA,NA,basic,custom_main_text2
557,What do you think your friend meant?,NA,It is big relative to other,images/tree-parade-redwood.png,13,NA,NA,NA,None,0,trees,sarah,NA,NA,1,confused,"You and your friend see another  redwood (not pictured), and your friend says: <br/><b>That's a big redwood.</b>",prenominal,NA,24,trees,None,1,NA,NA,graduated_high_school,big,NA,english,male,NA,NA,You and your friend see the following:,3,1571234475421,NA,NA,1.5,NA,NA,NA,congr,custom_main_text2
556,<i>What do you think Speaker A meant? </i>,NA,The Empire State Building is tall relative to other,NA,13,NA,NA,NA,No,2,NA,mary,1,NA,NA,yes,NA,NA,"<b> Speaker A: ""The Empire State Building is tall.""</b>",25,buildings,NA,NA,NA,NA,graduated_college,NA,comp_class_warmup,English,male,NA,NA,In the main trials you will be asked to rephrase something a person said. The utterance will contain a word that is <i>relative</i> and your task is to figure out what it is relative to. <br /> <br /> For example: <br /><br />,1,1571234554803,1,NA,1,NA,NA,"buildings, scyscrapers, houses, constructions (choose one)",NA,comp_class_warmup
556,NA,pug,NA,NA,13,warmup/great-dane.jpg,pug,This is a,No,2,dogs,mary,NA,great dane,NA,yes,Please label the pictures below.,NA,NA,25,NA,NA,NA,warmup/pug.jpg,dogs,graduated_college,NA,NA,English,male,NA,dogs,NA,1,1571234554803,1,This is a,1,These are both,great dane,NA,NA,warmup1
556,NA,swordfish,NA,NA,13,warmup/goldfish.png,swordfish,This is a,No,2,fish,mary,NA,goldfish,NA,yes,Please label the pictures below.,NA,NA,25,NA,NA,NA,warmup/swordfish.jpg,fish,graduated_college,NA,NA,English,male,NA,fish,NA,2,1571234554803,1,This is a,1,These are both,goldfish,NA,NA,warmup1
556,NA,dandelion,NA,NA,13,warmup/sunflower.png,dandelion,This is a,No,2,flowers,mary,NA,sunflower,NA,yes,Please label the pictures below.,NA,NA,25,NA,NA,NA,warmup/dandelion.jpg,plants,graduated_college,NA,NA,English,male,NA,flowers,NA,3,1571234554803,1,This is a,1,These are both,sunflower,NA,NA,warmup1
556,NA,dandelion,NA,NA,13,warmup/sunflower.png,dandelion,This is a,No,2,flowers,mary,NA,sunflower,NA,yes,Please label the pictures below.,NA,NA,25,NA,NA,NA,warmup/dandelion.jpg,flowers,graduated_college,NA,NA,English,male,NA,flowers,NA,3,1571234554803,2,This is a,1,These are both,sunflower,NA,NA,warmup1
556,What do you think your friend meant?,NA,It is small relative to other,images/dog-parade-pug.png,13,NA,NA,NA,No,2,dogs2,mary,NA,NA,1,yes,"You and your friend see another  pug (not pictured), and your friend says: <br/><b>That's a small dog.</b>",prenominal,NA,25,pugs,NA,0,NA,NA,graduated_college,small,NA,English,male,NA,NA,You and your friend see the following:,1,1571234554803,NA,NA,1,NA,NA,NA,congr,custom_main_text1
556,What do you think your friend meant?,NA,It is small relative to other,images/flower-parade-dandelion.png,13,NA,NA,NA,No,2,flowers,mary,NA,NA,1,yes,"You and your friend see another  dandelion (not pictured), and your friend says: <br/><b>That's a small dandelion.</b>",prenominal,NA,25,dandelions,NA,1,NA,NA,graduated_college,small,NA,English,male,NA,NA,You and your friend see the following:,2,1571234554803,NA,NA,1,NA,NA,NA,congr,custom_main_text1
556,Please rephrase your friend's comment.,NA,It is big relative to other,images/fish-parade-basic.png,13,NA,NA,NA,No,2,fish,mary,NA,NA,0,yes,"You and your friend see another  swordfish (not pictured), and your friend says: <br/><b>That's a big swordfish.</b>",prenominal,NA,25,swordfish,NA,1,NA,NA,graduated_college,big,NA,English,male,NA,NA,You and your friend see the following:,3,1571234554803,NA,NA,1,NA,NA,NA,basic,custom_main_text1
556,NA,hummingbird,NA,NA,13,warmup/eagle.jpg,hummingbird,This is a,No,2,birds,mary,NA,eagle,NA,yes,Please label the pictures below.,NA,NA,25,NA,NA,NA,warmup/colibri.jpg,birds,graduated_college,NA,NA,English,male,NA,birds,NA,1,1571234554803,1,This is an,1,These are both,eagle,NA,NA,warmup2
556,NA,chihuahua,NA,NA,13,warmup/doberman.png,chihuahua,This is a,No,2,dogs,mary,NA,doberman,NA,yes,Please label the pictures below.,NA,NA,25,NA,NA,NA,warmup/chihuahua.jpg,dogs,graduated_college,NA,NA,English,male,NA,dogs,NA,2,1571234554803,1,This is a,1,These are both,doberman,NA,NA,warmup2
556,NA,oak,NA,NA,13,warmup/bonsai.jpg,redwood or sequoia (choose one),This is a,No,2,trees,mary,NA,bonsai,NA,yes,Please label the pictures below.,NA,NA,25,NA,NA,NA,warmup/sequoia.png,trees,graduated_college,NA,NA,English,male,NA,trees,NA,3,1571234554803,1,This is a,1,These are both,bonzai,NA,NA,warmup2
556,NA,redwood,NA,NA,13,warmup/bonsai.jpg,redwood or sequoia (choose one),This is a,No,2,trees,mary,NA,bonsai,NA,yes,Please label the pictures below.,NA,NA,25,NA,NA,NA,warmup/sequoia.png,trees,graduated_college,NA,NA,English,male,NA,trees,NA,3,1571234554803,2,This is a,1,These are both,bonsai,NA,NA,warmup2
556,What do you think your friend meant?,NA,It is big relative to other,images/dog-parade-doberman.png,13,NA,NA,NA,No,2,dogs1,mary,NA,NA,1,yes,"You and your friend see another  doberman (not pictured), and your friend says: <br/><b>That's a big one.</b>",prenominal,NA,25,doberman,NA,2,NA,NA,graduated_college,big,NA,English,male,NA,NA,You and your friend see the following:,1,1571234554803,NA,NA,1,NA,NA,NA,congr,custom_main_text2
556,What do you think your friend meant?,NA,It is big relative to other,images/tree-parade-basic.png,13,NA,NA,NA,No,2,trees,mary,NA,NA,0,yes,"You and your friend see another  redwood (not pictured), and your friend says: <br/><b>That's a big tree.</b>",prenominal,NA,25,redwood,NA,0,NA,NA,graduated_college,big,NA,English,male,NA,NA,You and your friend see the following:,2,1571234554803,NA,NA,1,NA,NA,NA,basic,custom_main_text2
556,What do you think your friend meant?,NA,It is small relative to other,images/bird-parade-basic.png,13,NA,NA,NA,No,2,birds,mary,NA,NA,0,yes,"You and your friend see another  hummingbird (not pictured), and your friend says: <br/><b>That's a small one.</b>",prenominal,NA,25,birds,NA,2,NA,NA,graduated_college,small,NA,English,male,NA,NA,You and your friend see the following:,3,1571234554803,NA,NA,1,NA,NA,NA,basic,custom_main_text2
554,<i>What do you think Speaker A meant? </i>,NA,The Empire State Building is tall relative to other,NA,13,NA,NA,NA,no,2,NA,linda,1,NA,NA,yes,NA,NA,"<b> Speaker A: ""The Empire State Building is tall.""</b>",29,buildings,NA,NA,NA,NA,graduated_high_school,NA,comp_class_warmup,English,male,NA,NA,In the main trials you will be asked to rephrase something a person said. The utterance will contain a word that is <i>relative</i> and your task is to figure out what it is relative to. <br /> <br /> For example: <br /><br />,1,1571234450975,1,NA,1,NA,NA,"buildings, scyscrapers, houses, constructions (choose one)",NA,comp_class_warmup
554,NA,sunflower,NA,NA,13,warmup/sunflower.png,dandelion,This is a,no,2,flowers,linda,NA,sunflower,NA,yes,Please label the pictures below.,NA,NA,29,NA,NA,NA,warmup/dandelion.jpg,flowers,graduated_high_school,NA,NA,English,male,NA,flowers,NA,1,1571234450975,1,This is a,1,These are both,sunflower,NA,NA,warmup1
554,NA,dandelion,NA,NA,13,warmup/sunflower.png,dandelion,This is a,no,2,flowers,linda,NA,sunflower,NA,yes,Please label the pictures below.,NA,NA,29,NA,NA,NA,warmup/dandelion.jpg,flowers,graduated_high_school,NA,NA,English,male,NA,flowers,NA,1,1571234450975,2,This is a,1,These are both,sunflower,NA,NA,warmup1
554,NA,hummingbird,NA,NA,13,warmup/eagle.jpg,hummingbird,This is a,no,2,birds,linda,NA,eagle,NA,yes,Please label the pictures below.,NA,NA,29,NA,NA,NA,warmup/colibri.jpg,birds,graduated_high_school,NA,NA,English,male,NA,birds,NA,2,1571234450975,1,This is an,1,These are both,eagle,NA,NA,warmup1
554,NA,pug,NA,NA,13,warmup/great-dane.jpg,pug,This is a,no,2,dogs,linda,NA,great dane,NA,yes,Please label the pictures below.,NA,NA,29,NA,NA,NA,warmup/pug.jpg,dogs,graduated_high_school,NA,NA,English,male,NA,dogs,NA,3,1571234450975,1,This is a,1,These are both,weinreimer,NA,NA,warmup1
554,NA,pug,NA,NA,13,warmup/great-dane.jpg,pug,This is a,no,2,dogs,linda,NA,great dane,NA,yes,Please label the pictures below.,NA,NA,29,NA,NA,NA,warmup/pug.jpg,great dane,graduated_high_school,NA,NA,English,male,NA,dogs,NA,3,1571234450975,2,This is a,1,These are both,weinreimer,NA,NA,warmup1
554,NA,pug,NA,NA,13,warmup/great-dane.jpg,pug,This is a,no,2,dogs,linda,NA,great dane,NA,yes,Please label the pictures below.,NA,NA,29,NA,NA,NA,warmup/pug.jpg,dogs,graduated_high_school,NA,NA,English,male,NA,dogs,NA,3,1571234450975,3,This is a,1,These are both,great dane,NA,NA,warmup1
554,What do you think your friend meant?,NA,It is big relative to other,images/flower-parade-sunflower.png,13,NA,NA,NA,no,2,flowers,linda,NA,NA,1,yes,"You and your friend see another  sunflower (not pictured), and your friend says: <br/><b>That's a big flower.</b>",prenominal,NA,29,flowers,NA,0,NA,NA,graduated_high_school,big,NA,English,male,NA,NA,You and your friend see the following:,1,1571234450975,NA,NA,1,NA,NA,NA,congr,custom_main_text1
554,What do you think your friend meant?,NA,It is big relative to other,images/bird-parade-basic.png,13,NA,NA,NA,no,2,birds,linda,NA,NA,0,yes,"You and your friend see another  eagle (not pictured), and your friend says: <br/><b>That's a big eagle.</b>",prenominal,NA,29,birds,NA,1,NA,NA,graduated_high_school,big,NA,English,male,NA,NA,You and your friend see the following:,2,1571234450975,NA,NA,1,NA,NA,NA,basic,custom_main_text1
554,What do you think your friend meant?,NA,It is small relative to other,images/dog-parade-pug.png,13,NA,NA,NA,no,2,dogs2,linda,NA,NA,1,yes,"You and your friend see another  pug (not pictured), and your friend says: <br/><b>That's a small dog.</b>",prenominal,NA,29,dogs,NA,0,NA,NA,graduated_high_school,small,NA,English,male,NA,NA,You and your friend see the following:,3,1571234450975,NA,NA,1,NA,NA,NA,congr,custom_main_text1
554,NA,oak,NA,NA,13,warmup/bonsai.jpg,redwood or sequoia (choose one),This is a,no,2,trees,linda,NA,bonsai,NA,yes,Please label the pictures below.,NA,NA,29,NA,NA,NA,warmup/sequoia.png,trees,graduated_high_school,NA,NA,English,male,NA,trees,NA,1,1571234450975,1,This is a,1,These are both,banzai,NA,NA,warmup2
554,NA,redwood,NA,NA,13,warmup/bonsai.jpg,redwood or sequoia (choose one),This is a,no,2,trees,linda,NA,bonsai,NA,yes,Please label the pictures below.,NA,NA,29,NA,NA,NA,warmup/sequoia.png,trees,graduated_high_school,NA,NA,English,male,NA,trees,NA,1,1571234450975,2,This is a,1,These are both,bonsai,NA,NA,warmup2
554,NA,chiuahaha,NA,NA,13,warmup/doberman.png,chihuahua,This is a,no,2,dogs,linda,NA,doberman,NA,yes,Please label the pictures below.,NA,NA,29,NA,NA,NA,warmup/chihuahua.jpg,dogs,graduated_high_school,NA,NA,English,male,NA,dogs,NA,2,1571234450975,1,This is a,1,These are both,pitbull,NA,NA,warmup2
554,NA,chihuahua,NA,NA,13,warmup/doberman.png,chihuahua,This is a,no,2,dogs,linda,NA,doberman,NA,yes,Please label the pictures below.,NA,NA,29,NA,NA,NA,warmup/chihuahua.jpg,dogs,graduated_high_school,NA,NA,English,male,NA,dogs,NA,2,1571234450975,2,This is a,1,These are both,doberman,NA,NA,warmup2
554,NA,swordfish,NA,NA,13,warmup/goldfish.png,swordfish,This is a,no,2,fish,linda,NA,goldfish,NA,yes,Please label the pictures below.,NA,NA,29,NA,NA,NA,warmup/swordfish.jpg,fish,graduated_high_school,NA,NA,English,male,NA,fish,NA,3,1571234450975,1,This is a,1,These are both,goldfish,NA,NA,warmup2
554,Please rephrase your friend's comment.,NA,It is big relative to other,images/fish-parade-swordfish.png,13,NA,NA,NA,no,2,fish,linda,NA,NA,1,yes,"You and your friend see another  swordfish (not pictured), and your friend says: <br/><b>That's a big swordfish.</b>",prenominal,NA,29,fish,NA,1,NA,NA,graduated_high_school,big,NA,English,male,NA,NA,You and your friend see the following:,1,1571234450975,NA,NA,1,NA,NA,NA,congr,custom_main_text2
554,What do you think your friend meant?,NA,It is small relative to other,images/dog-parade-basic.png,13,NA,NA,NA,no,2,dogs1,linda,NA,NA,0,yes,"You and your friend see another  chihuahua (not pictured), and your friend says: <br/><b>That's a small one.</b>",prenominal,NA,29,dogs,NA,2,NA,NA,graduated_high_school,small,NA,English,male,NA,NA,You and your friend see the following:,2,1571234450975,NA,NA,1,NA,NA,NA,basic,custom_main_text2
554,What do you think your friend meant?,NA,It is small relative to other,images/tree-parade-basic.png,13,NA,NA,NA,no,2,trees,linda,NA,NA,0,yes,"You and your friend see another  bonsai (not pictured), and your friend says: <br/><b>That's a small one.</b>",prenominal,NA,29,trees,NA,2,NA,NA,graduated_high_school,small,NA,English,male,NA,NA,You and your friend see the following:,3,1571234450975,NA,NA,1,NA,NA,NA,basic,custom_main_text2
