submission_id,question,response1,sentence_left,context_picture,experiment_id,picture2,correct1,question1,problems,enjoyment,item,botresponse,correct2,pic_spec,understand,text,age,response,comments,ref_spec,picture1,response3,education,target_size,languages,sex,RT,correct3,context,trial_number,startTime,attempts,question3,fairprice,question2,response2,trial_name,condition
439,NA,humminbird,NA,NA,11,warmup/eagle.jpg,hummingbird,This is a,i had no issues,1,birds,elizabeth,eagle,NA,yes,Please label the pictures below.,29,NA,NA,NA,warmup/colibri.jpg,birds,some_college,NA,english,female,NA,birds,NA,1,1566837016834,1,This is an,1,These are both,eagle,warmup1,NA
439,NA,hummingbird,NA,NA,11,warmup/eagle.jpg,hummingbird,This is a,i had no issues,1,birds,elizabeth,eagle,NA,yes,Please label the pictures below.,29,NA,NA,NA,warmup/colibri.jpg,birds,some_college,NA,english,female,NA,birds,NA,1,1566837016834,2,This is an,1,These are both,eagle,warmup1,NA
439,NA,redwood,NA,NA,11,warmup/bonsai.jpg,redwood|sequoia,This is a,i had no issues,1,trees,elizabeth,bonsai,NA,yes,Please label the pictures below.,29,NA,NA,NA,warmup/sequoia.jpg,trees,some_college,NA,english,female,NA,trees,NA,2,1566837016834,1,This is a,1,These are both,bonsai,warmup1,NA
439,NA,chiuaua,NA,NA,11,warmup/doberman.png,chihuahua,This is a,i had no issues,1,dogs,elizabeth,doberman,NA,yes,Please label the pictures below.,29,NA,NA,NA,warmup/chihuahua.jpg,dogs,some_college,NA,english,female,NA,dogs,NA,3,1566837016834,1,This is a,1,These are both,rotwiler,warmup1,NA
439,NA,chihuahua,NA,NA,11,warmup/doberman.png,chihuahua,This is a,i had no issues,1,dogs,elizabeth,doberman,NA,yes,Please label the pictures below.,29,NA,NA,NA,warmup/chihuahua.jpg,dogs,some_college,NA,english,female,NA,dogs,NA,3,1566837016834,2,This is a,1,These are both,doberman,warmup1,NA
439,Please rephrase your friend's comment.,NA,It is small relative to other,images/tree-parade-bonsai.png,11,NA,NA,NA,i had no issues,1,trees,elizabeth,NA,1,yes,Your friend points to another member of the group which you cannot see and says: <br/><b>That's a small one.</b>,29,bonsai trees,NA,1,NA,NA,some_college,small,english,female,NA,NA,You and your friend see the following:,1,1566837016834,NA,NA,1,NA,NA,custom_main_text1,prenominal
439,Please rephrase your friend's comment.,NA,It is small relative to other,images/dog-parade-chihuahua.png,11,NA,NA,NA,i had no issues,1,dogs1,elizabeth,NA,1,yes,Your friend points to another member of the group which you cannot see and says: <br/><b>That's a small one.</b>,29,chihuahuas,NA,1,NA,NA,some_college,small,english,female,NA,NA,You and your friend see the following:,2,1566837016834,NA,NA,1,NA,NA,custom_main_text1,prenominal
439,Please rephrase your friend's comment.,NA,It is big relative to other,images/bird-parade-basic.png,11,NA,NA,NA,i had no issues,1,birds,elizabeth,NA,0,yes,Your friend points to another member of the group which you cannot see and says: <br/><b> That's a big eagle.</b>,29,birds,NA,0,NA,NA,some_college,big,english,female,NA,NA,You and your friend see the following:,3,1566837016834,NA,NA,1,NA,NA,custom_main_text1,prenominal
439,NA,pug,NA,NA,11,warmup/great-dane.jpg,pug,This is a,i had no issues,1,dogs,elizabeth,great dane,NA,yes,Please label the pictures below.,29,NA,NA,NA,warmup/pug.jpg,dogs,some_college,NA,english,female,NA,dogs,NA,1,1566837016834,1,This is a,1,These are both,blood houd,warmup2,NA
439,NA,pug,NA,NA,11,warmup/great-dane.jpg,pug,This is a,i had no issues,1,dogs,elizabeth,great dane,NA,yes,Please label the pictures below.,29,NA,NA,NA,warmup/pug.jpg,dogs,some_college,NA,english,female,NA,dogs,NA,1,1566837016834,2,This is a,1,These are both,great dane,warmup2,NA
439,NA,swordfish,NA,NA,11,warmup/goldfish.png,swordfish,This is a,i had no issues,1,fish,elizabeth,goldfish,NA,yes,Please label the pictures below.,29,NA,NA,NA,warmup/swordfish.jpg,fish,some_college,NA,english,female,NA,fish,NA,2,1566837016834,1,This is a,1,These are both,goldfish,warmup2,NA
439,NA,dandilion,NA,NA,11,warmup/sunflower.png,dandelion,This is a,i had no issues,1,flowers,elizabeth,sunflower,NA,yes,Please label the pictures below.,29,NA,NA,NA,warmup/dandelion.jpg,flowers,some_college,NA,english,female,NA,flowers,NA,3,1566837016834,1,This is a,1,These are both,sunflower,warmup2,NA
439,NA,dandelion,NA,NA,11,warmup/sunflower.png,dandelion,This is a,i had no issues,1,flowers,elizabeth,sunflower,NA,yes,Please label the pictures below.,29,NA,NA,NA,warmup/dandelion.jpg,flowers,some_college,NA,english,female,NA,flowers,NA,3,1566837016834,2,This is a,1,These are both,sunflower,warmup2,NA
439,Please rephrase your friend's comment.,NA,It is small relative to other,images/dog-parade-basic2.png,11,NA,NA,NA,i had no issues,1,dogs2,elizabeth,NA,0,yes,Your friend points to another member of the group which you cannot see and says: <br/><b>That's a small pug.</b>,29,dogs,NA,0,NA,NA,some_college,small,english,female,NA,NA,You and your friend see the following:,1,1566837016834,NA,NA,1,NA,NA,custom_main_text2,prenominal
439,Please rephrase your friend's comment.,NA,It is big relative to other,images/fish-parade-basic.png,11,NA,NA,NA,i had no issues,1,fish,elizabeth,NA,0,yes,Your friend points to another member of the group which you cannot see and says: <br/><b>That's a big one.</b>,29,fish,NA,1,NA,NA,some_college,big,english,female,NA,NA,You and your friend see the following:,2,1566837016834,NA,NA,1,NA,NA,custom_main_text2,prenominal
439,Please rephrase your friend's comment.,NA,It is big relative to other,images/flower-parade-sunflower.png,11,NA,NA,NA,i had no issues,1,flowers,elizabeth,NA,1,yes,Your friend points to another member of the group which you cannot see and says: <br/><b>That's a big sunflower.</b>,29,sunflowers,NA,0,NA,NA,some_college,big,english,female,NA,NA,You and your friend see the following:,3,1566837016834,NA,NA,1,NA,NA,custom_main_text2,prenominal
407,NA,tree,NA,NA,11,warmup/bonsai.jpg,redwood|sequoia,This is a,No.,1,trees,sarah,bonsai,NA,yes,Please label the pictures below.,27,NA,NA,NA,warmup/sequoia.jpg,trees,some_college,NA,English,female,NA,trees,NA,1,1566831389201,1,This is a,1,These are both,bonsai,warmup1,NA
407,NA,redwood,NA,NA,11,warmup/bonsai.jpg,redwood|sequoia,This is a,No.,1,trees,sarah,bonsai,NA,yes,Please label the pictures below.,27,NA,NA,NA,warmup/sequoia.jpg,trees,some_college,NA,English,female,NA,trees,NA,1,1566831389201,2,This is a,1,These are both,bonsai,warmup1,NA
407,NA,pug,NA,NA,11,warmup/great-dane.jpg,pug,This is a,No.,1,dogs,sarah,great dane,NA,yes,Please label the pictures below.,27,NA,NA,NA,warmup/pug.jpg,dogs,some_college,NA,English,female,NA,dogs,NA,2,1566831389201,1,This is a,1,These are both,great dane,warmup1,NA
407,NA,hummingbird,NA,NA,11,warmup/eagle.jpg,hummingbird,This is a,No.,1,birds,sarah,eagle,NA,yes,Please label the pictures below.,27,NA,NA,NA,warmup/colibri.jpg,birds,some_college,NA,English,female,NA,birds,NA,3,1566831389201,1,This is an,1,These are both,eagle,warmup1,NA
407,Please rephrase your friend's comment.,NA,It is small relative to other,images/tree-parade-bonsai.png,11,NA,NA,NA,No.,1,trees,sarah,NA,1,yes,Your friend points to another member of the group which you cannot see and says: <br/><b>That's a small one.</b>,27,bonsai trees,NA,1,NA,NA,some_college,small,English,female,NA,NA,You and your friend see the following:,1,1566831389201,NA,NA,1,NA,NA,custom_main_text1,prenominal
407,Please rephrase your friend's comment.,NA,It is small relative to other,images/bird-parade-basic.png,11,NA,NA,NA,No.,1,birds,sarah,NA,0,yes,Your friend points to another member of the group which you cannot see and says: <br/><b> That's a small one.</b>,27,eagles,NA,1,NA,NA,some_college,small,English,female,NA,NA,You and your friend see the following:,2,1566831389201,NA,NA,1,NA,NA,custom_main_text1,prenominal
407,Please rephrase your friend's comment.,NA,It is big relative to other,images/dog-parade-basic2.png,11,NA,NA,NA,No.,1,dogs2,sarah,NA,0,yes,Your friend points to another member of the group which you cannot see and says: <br/><b>That's a big great dane.</b>,27,great danes,NA,0,NA,NA,some_college,big,English,female,NA,NA,You and your friend see the following:,3,1566831389201,NA,NA,1,NA,NA,custom_main_text1,prenominal
407,NA,chihuahua,NA,NA,11,warmup/doberman.png,chihuahua,This is a,No.,1,dogs,sarah,doberman,NA,yes,Please label the pictures below.,27,NA,NA,NA,warmup/chihuahua.jpg,dogs,some_college,NA,English,female,NA,dogs,NA,1,1566831389201,1,This is a,1,These are both,doberman,warmup2,NA
407,NA,swordfish,NA,NA,11,warmup/goldfish.png,swordfish,This is a,No.,1,fish,sarah,goldfish,NA,yes,Please label the pictures below.,27,NA,NA,NA,warmup/swordfish.jpg,fish,some_college,NA,English,female,NA,fish,NA,2,1566831389201,1,This is a,1,These are both,goldfish,warmup2,NA
407,NA,dandilion,NA,NA,11,warmup/sunflower.png,dandelion,This is a,No.,1,flowers,sarah,sunflower,NA,yes,Please label the pictures below.,27,NA,NA,NA,warmup/dandelion.jpg,flowers,some_college,NA,English,female,NA,flowers,NA,3,1566831389201,1,This is a,1,These are both,sunflower,warmup2,NA
407,NA,dandelion,NA,NA,11,warmup/sunflower.png,dandelion,This is a,No.,1,flowers,sarah,sunflower,NA,yes,Please label the pictures below.,27,NA,NA,NA,warmup/dandelion.jpg,flowers,some_college,NA,English,female,NA,flowers,NA,3,1566831389201,2,This is a,1,These are both,sunflower,warmup2,NA
407,Please rephrase your friend's comment.,NA,It is small relative to other,images/flower-parade-basic.png,11,NA,NA,NA,No.,1,flowers,sarah,NA,0,yes,Your friend points to another member of the group which you cannot see and says: <br/><b>That's a small dandelion.</b>,27,dandelions,NA,0,NA,NA,some_college,small,English,female,NA,NA,You and your friend see the following:,1,1566831389201,NA,NA,1,NA,NA,custom_main_text2,prenominal
407,Please rephrase your friend's comment.,NA,It is big relative to other,images/dog-parade-doberman.png,11,NA,NA,NA,No.,1,dogs1,sarah,NA,1,yes,Your friend points to another member of the group which you cannot see and says: <br/><b>That's a big one.</b>,27,dobermen,NA,1,NA,NA,some_college,big,English,female,NA,NA,You and your friend see the following:,2,1566831389201,NA,NA,1,NA,NA,custom_main_text2,prenominal
407,Please rephrase your friend's comment.,NA,It is big relative to other,images/fish-parade-swordfish.png,11,NA,NA,NA,No.,1,fish,sarah,NA,1,yes,Your friend points to another member of the group which you cannot see and says: <br/><b>That's a big swordfish.</b>,27,swordfish,NA,0,NA,NA,some_college,big,English,female,NA,NA,You and your friend see the following:,3,1566831389201,NA,NA,1,NA,NA,custom_main_text2,prenominal
389,NA,hummingbird,NA,NA,11,warmup/eagle.jpg,hummingbird,This is a,no,2,birds,mary,eagle,NA,yes,Please label the pictures below.,30,NA,NA,NA,warmup/colibri.jpg,birds,some_college,NA,english,female,NA,birds,NA,1,1566831007307,1,This is an,2,These are both,eagle,warmup1,NA
389,NA,marlin,NA,NA,11,warmup/goldfish.png,swordfish,This is a,no,2,fish,mary,goldfish,NA,yes,Please label the pictures below.,30,NA,NA,NA,warmup/swordfish.jpg,fish,some_college,NA,english,female,NA,fish,NA,2,1566831007307,1,This is a,2,These are both,goldfish,warmup1,NA
389,NA,swordfish,NA,NA,11,warmup/goldfish.png,swordfish,This is a,no,2,fish,mary,goldfish,NA,yes,Please label the pictures below.,30,NA,NA,NA,warmup/swordfish.jpg,fish,some_college,NA,english,female,NA,fish,NA,2,1566831007307,2,This is a,2,These are both,goldfish,warmup1,NA
389,NA,daisy,NA,NA,11,warmup/sunflower.png,dandelion,This is a,no,2,flowers,mary,sunflower,NA,yes,Please label the pictures below.,30,NA,NA,NA,warmup/dandelion.jpg,flowers,some_college,NA,english,female,NA,flowers,NA,3,1566831007307,1,This is a,2,These are both,sunflower,warmup1,NA
389,NA,dandelion,NA,NA,11,warmup/sunflower.png,dandelion,This is a,no,2,flowers,mary,sunflower,NA,yes,Please label the pictures below.,30,NA,NA,NA,warmup/dandelion.jpg,flowers,some_college,NA,english,female,NA,flowers,NA,3,1566831007307,2,This is a,2,These are both,sunflower,warmup1,NA
389,Please rephrase your friend's comment.,NA,It is big relative to other,images/flower-parade-basic.png,11,NA,NA,NA,no,2,flowers,mary,NA,0,yes,Your friend points to another member of the group which you cannot see and says: <br/><b>That's a big sunflower.</b>,30,flowers,NA,0,NA,NA,some_college,big,english,female,NA,NA,You and your friend see the following:,1,1566831007307,NA,NA,2,NA,NA,custom_main_text1,prenominal
389,Please rephrase your friend's comment.,NA,It is small relative to other,images/fish-parade-basic.png,11,NA,NA,NA,no,2,fish,mary,NA,0,yes,Your friend points to another member of the group which you cannot see and says: <br/><b>That's a small goldfish.</b>,30,goldfish,NA,0,NA,NA,some_college,small,english,female,NA,NA,You and your friend see the following:,2,1566831007307,NA,NA,2,NA,NA,custom_main_text1,prenominal
389,Please rephrase your friend's comment.,NA,It is big relative to other,images/bird-parade-eagle.png,11,NA,NA,NA,no,2,birds,mary,NA,1,yes,Your friend points to another member of the group which you cannot see and says: <br/><b> That's a big one.</b>,30,eagles,NA,1,NA,NA,some_college,big,english,female,NA,NA,You and your friend see the following:,3,1566831007307,NA,NA,2,NA,NA,custom_main_text1,prenominal
389,NA,pug,NA,NA,11,warmup/great-dane.jpg,pug,This is a,no,2,dogs,mary,great dane,NA,yes,Please label the pictures below.,30,NA,NA,NA,warmup/pug.jpg,dogs,some_college,NA,english,female,NA,dogs,NA,1,1566831007307,1,This is a,2,These are both,great dane,warmup2,NA
389,NA,chiuaua,NA,NA,11,warmup/doberman.png,chihuahua,This is a,no,2,dogs,mary,doberman,NA,yes,Please label the pictures below.,30,NA,NA,NA,warmup/chihuahua.jpg,dogs,some_college,NA,english,female,NA,dogs,NA,2,1566831007307,1,This is a,2,These are both,rottweiler,warmup2,NA
389,NA,chihuahua,NA,NA,11,warmup/doberman.png,chihuahua,This is a,no,2,dogs,mary,doberman,NA,yes,Please label the pictures below.,30,NA,NA,NA,warmup/chihuahua.jpg,dogs,some_college,NA,english,female,NA,dogs,NA,2,1566831007307,2,This is a,2,These are both,doberman,warmup2,NA
389,NA,redwood,NA,NA,11,warmup/bonsai.jpg,redwood|sequoia,This is a,no,2,trees,mary,bonsai,NA,yes,Please label the pictures below.,30,NA,NA,NA,warmup/sequoia.jpg,trees,some_college,NA,english,female,NA,trees,NA,3,1566831007307,1,This is a,2,These are both,twig,warmup2,NA
389,NA,redwood,NA,NA,11,warmup/bonsai.jpg,redwood|sequoia,This is a,no,2,trees,mary,bonsai,NA,yes,Please label the pictures below.,30,NA,NA,NA,warmup/sequoia.jpg,trees,some_college,NA,english,female,NA,trees,NA,3,1566831007307,2,This is a,2,These are both,bonsai,warmup2,NA
389,Please rephrase your friend's comment.,NA,It is small relative to other,images/dog-parade-basic2.png,11,NA,NA,NA,no,2,dogs2,mary,NA,0,yes,Your friend points to another member of the group which you cannot see and says: <br/><b>That's a small one.</b>,30,dogs,NA,1,NA,NA,some_college,small,english,female,NA,NA,You and your friend see the following:,1,1566831007307,NA,NA,2,NA,NA,custom_main_text2,prenominal
389,Please rephrase your friend's comment.,NA,It is small relative to other,images/tree-parade-bonsai.png,11,NA,NA,NA,no,2,trees,mary,NA,1,yes,Your friend points to another member of the group which you cannot see and says: <br/><b>That's a small one.</b>,30,bonsais,NA,1,NA,NA,some_college,small,english,female,NA,NA,You and your friend see the following:,2,1566831007307,NA,NA,2,NA,NA,custom_main_text2,prenominal
389,Please rephrase your friend's comment.,NA,It is big relative to other,images/dog-parade-doberman.png,11,NA,NA,NA,no,2,dogs1,mary,NA,1,yes,Your friend points to another member of the group which you cannot see and says: <br/><b>That's a big doberman.</b>,30,dobermans,NA,0,NA,NA,some_college,big,english,female,NA,NA,You and your friend see the following:,3,1566831007307,NA,NA,2,NA,NA,custom_main_text2,prenominal
376,NA,dandelion,NA,NA,11,warmup/sunflower.png,dandelion,This is a,no,2,flowers,linda,sunflower,NA,yes,Please label the pictures below.,41,NA,NA,NA,warmup/dandelion.jpg,flowers,graduated_college,NA,english,female,NA,flowers,NA,1,1566830851176,1,This is a,1,These are both,sunflower,warmup1,NA
376,NA,chiaua,NA,NA,11,warmup/doberman.png,chihuahua,This is a,no,2,dogs,linda,doberman,NA,yes,Please label the pictures below.,41,NA,NA,NA,warmup/chihuahua.jpg,dogs,graduated_college,NA,english,female,NA,dogs,NA,2,1566830851176,1,This is a,1,These are both,doberman,warmup1,NA
376,NA,chihuahua,NA,NA,11,warmup/doberman.png,chihuahua,This is a,no,2,dogs,linda,doberman,NA,yes,Please label the pictures below.,41,NA,NA,NA,warmup/chihuahua.jpg,dogs,graduated_college,NA,english,female,NA,dogs,NA,2,1566830851176,2,This is a,1,These are both,doberman,warmup1,NA
376,NA,oak,NA,NA,11,warmup/bonsai.jpg,redwood|sequoia,This is a,no,2,trees,linda,bonsai,NA,yes,Please label the pictures below.,41,NA,NA,NA,warmup/sequoia.jpg,tree,graduated_college,NA,english,female,NA,trees,NA,3,1566830851176,1,This is a,1,These are both,bonsai,warmup1,NA
376,NA,redwood,NA,NA,11,warmup/bonsai.jpg,redwood|sequoia,This is a,no,2,trees,linda,bonsai,NA,yes,Please label the pictures below.,41,NA,NA,NA,warmup/sequoia.jpg,trees,graduated_college,NA,english,female,NA,trees,NA,3,1566830851176,2,This is a,1,These are both,bonsai,warmup1,NA
376,Please rephrase your friend's comment.,NA,It is big relative to other,images/tree-parade-redwood.png,11,NA,NA,NA,no,2,trees,linda,NA,1,yes,Your friend points to another member of the group which you cannot see and says: <br/><b>That's a big one.</b>,41,trees,NA,1,NA,NA,graduated_college,big,english,female,NA,NA,You and your friend see the following:,1,1566830851176,NA,NA,1,NA,NA,custom_main_text1,prenominal
376,Please rephrase your friend's comment.,NA,It is small relative to other,images/flower-parade-dandelion.png,11,NA,NA,NA,no,2,flowers,linda,NA,1,yes,Your friend points to another member of the group which you cannot see and says: <br/><b>That's a small dandelion.</b>,41,dandelions,NA,0,NA,NA,graduated_college,small,english,female,NA,NA,You and your friend see the following:,2,1566830851176,NA,NA,1,NA,NA,custom_main_text1,prenominal
376,Please rephrase your friend's comment.,NA,It is small relative to other,images/dog-parade-basic.png,11,NA,NA,NA,no,2,dogs1,linda,NA,0,yes,Your friend points to another member of the group which you cannot see and says: <br/><b>That's a small one.</b>,41,dogs,NA,1,NA,NA,graduated_college,small,english,female,NA,NA,You and your friend see the following:,3,1566830851176,NA,NA,1,NA,NA,custom_main_text1,prenominal
376,NA,hummingbird,NA,NA,11,warmup/eagle.jpg,hummingbird,This is a,no,2,birds,linda,eagle,NA,yes,Please label the pictures below.,41,NA,NA,NA,warmup/colibri.jpg,birds,graduated_college,NA,english,female,NA,birds,NA,1,1566830851176,1,This is an,1,These are both,eagle,warmup2,NA
376,NA,sword fish,NA,NA,11,warmup/goldfish.png,swordfish,This is a,no,2,fish,linda,goldfish,NA,yes,Please label the pictures below.,41,NA,NA,NA,warmup/swordfish.jpg,fish,graduated_college,NA,english,female,NA,fish,NA,2,1566830851176,1,This is a,1,These are both,gold fish,warmup2,NA
376,NA,swordfish,NA,NA,11,warmup/goldfish.png,swordfish,This is a,no,2,fish,linda,goldfish,NA,yes,Please label the pictures below.,41,NA,NA,NA,warmup/swordfish.jpg,fish,graduated_college,NA,english,female,NA,fish,NA,2,1566830851176,2,This is a,1,These are both,goldfish,warmup2,NA
376,NA,pug,NA,NA,11,warmup/great-dane.jpg,pug,This is a,no,2,dogs,linda,great dane,NA,yes,Please label the pictures below.,41,NA,NA,NA,warmup/pug.jpg,dogs,graduated_college,NA,english,female,NA,dogs,NA,3,1566830851176,1,This is a,1,These are both,retriever,warmup2,NA
376,NA,pug,NA,NA,11,warmup/great-dane.jpg,pug,This is a,no,2,dogs,linda,great dane,NA,yes,Please label the pictures below.,41,NA,NA,NA,warmup/pug.jpg,dogs,graduated_college,NA,english,female,NA,dogs,NA,3,1566830851176,2,This is a,1,These are both,great dane,warmup2,NA
376,Please rephrase your friend's comment.,NA,It is small relative to other,images/fish-parade-basic.png,11,NA,NA,NA,no,2,fish,linda,NA,0,yes,Your friend points to another member of the group which you cannot see and says: <br/><b>That's a small goldfish.</b>,41,goldfish,NA,0,NA,NA,graduated_college,small,english,female,NA,NA,You and your friend see the following:,1,1566830851176,NA,NA,1,NA,NA,custom_main_text2,prenominal
376,Please rephrase your friend's comment.,NA,It is big relative to other,images/dog-parade-great-dane.png,11,NA,NA,NA,no,2,dogs2,linda,NA,1,yes,Your friend points to another member of the group which you cannot see and says: <br/><b>That's a big great dane.</b>,41,great danes,NA,0,NA,NA,graduated_college,big,english,female,NA,NA,You and your friend see the following:,2,1566830851176,NA,NA,1,NA,NA,custom_main_text2,prenominal
376,Please rephrase your friend's comment.,NA,It is big relative to other,images/bird-parade-basic.png,11,NA,NA,NA,no,2,birds,linda,NA,0,yes,Your friend points to another member of the group which you cannot see and says: <br/><b> That's a big one.</b>,41,birds,NA,1,NA,NA,graduated_college,big,english,female,NA,NA,You and your friend see the following:,3,1566830851176,NA,NA,1,NA,NA,custom_main_text2,prenominal
372,NA,tree,NA,NA,11,warmup/bonsai.jpg,redwood|sequoia,This is a,no,1,trees,Jessica,bonsai,NA,yes,Please label the pictures below.,40,NA,none,NA,warmup/sequoia.jpg,trees,graduated_college,NA,English,male,NA,trees,NA,1,1566830400029,1,This is a,1,These are both,banzai tree,warmup1,NA
372,NA,redwood,NA,NA,11,warmup/bonsai.jpg,redwood|sequoia,This is a,no,1,trees,Jessica,bonsai,NA,yes,Please label the pictures below.,40,NA,none,NA,warmup/sequoia.jpg,trees,graduated_college,NA,English,male,NA,trees,NA,1,1566830400029,2,This is a,1,These are both,bonsai,warmup1,NA
372,NA,chihuahua,NA,NA,11,warmup/doberman.png,chihuahua,This is a,no,1,dogs,Jessica,doberman,NA,yes,Please label the pictures below.,40,NA,none,NA,warmup/chihuahua.jpg,dogs,graduated_college,NA,English,male,NA,dogs,NA,2,1566830400029,1,This is a,1,These are both,dolberman,warmup1,NA
372,NA,chihuahua,NA,NA,11,warmup/doberman.png,chihuahua,This is a,no,1,dogs,Jessica,doberman,NA,yes,Please label the pictures below.,40,NA,none,NA,warmup/chihuahua.jpg,dogs,graduated_college,NA,English,male,NA,dogs,NA,2,1566830400029,2,This is a,1,These are both,doberman,warmup1,NA
372,NA,bulldog,NA,NA,11,warmup/great-dane.jpg,pug,This is a,no,1,dogs,Jessica,great dane,NA,yes,Please label the pictures below.,40,NA,none,NA,warmup/pug.jpg,dogs,graduated_college,NA,English,male,NA,dogs,NA,3,1566830400029,1,This is a,1,These are both,setter,warmup1,NA
372,NA,pug,NA,NA,11,warmup/great-dane.jpg,pug,This is a,no,1,dogs,Jessica,great dane,NA,yes,Please label the pictures below.,40,NA,none,NA,warmup/pug.jpg,dogs,graduated_college,NA,English,male,NA,dogs,NA,3,1566830400029,2,This is a,1,These are both,great dane,warmup1,NA
372,Please rephrase your friend's comment.,NA,It is small relative to other,images/dog-parade-pug.png,11,NA,NA,NA,no,1,dogs2,Jessica,NA,1,yes,Your friend points to another member of the group which you cannot see and says: <br/><b>That's a small pug.</b>,40,this is a little pug,none,0,NA,NA,graduated_college,small,English,male,NA,NA,You and your friend see the following:,1,1566830400029,NA,NA,1,NA,NA,custom_main_text1,prenominal
372,Please rephrase your friend's comment.,NA,It is small relative to other,images/tree-parade-basic.png,11,NA,NA,NA,no,1,trees,Jessica,NA,0,yes,Your friend points to another member of the group which you cannot see and says: <br/><b>That's a small bonsai.</b>,40,there is a little bonsai,none,0,NA,NA,graduated_college,small,English,male,NA,NA,You and your friend see the following:,2,1566830400029,NA,NA,1,NA,NA,custom_main_text1,prenominal
372,Please rephrase your friend's comment.,NA,It is big relative to other,images/dog-parade-basic.png,11,NA,NA,NA,no,1,dogs1,Jessica,NA,0,yes,Your friend points to another member of the group which you cannot see and says: <br/><b>That's a big one.</b>,40,that's a big dog,none,1,NA,NA,graduated_college,big,English,male,NA,NA,You and your friend see the following:,3,1566830400029,NA,NA,1,NA,NA,custom_main_text1,prenominal
372,NA,swordfish,NA,NA,11,warmup/goldfish.png,swordfish,This is a,no,1,fish,Jessica,goldfish,NA,yes,Please label the pictures below.,40,NA,none,NA,warmup/swordfish.jpg,fish,graduated_college,NA,English,male,NA,fish,NA,1,1566830400029,1,This is a,1,These are both,goldfish,warmup2,NA
372,NA,geranium,NA,NA,11,warmup/sunflower.png,dandelion,This is a,no,1,flowers,Jessica,sunflower,NA,yes,Please label the pictures below.,40,NA,none,NA,warmup/dandelion.jpg,flowers,graduated_college,NA,English,male,NA,flowers,NA,2,1566830400029,1,This is a,1,These are both,sunflower,warmup2,NA
372,NA,dandelion,NA,NA,11,warmup/sunflower.png,dandelion,This is a,no,1,flowers,Jessica,sunflower,NA,yes,Please label the pictures below.,40,NA,none,NA,warmup/dandelion.jpg,flowers,graduated_college,NA,English,male,NA,flowers,NA,2,1566830400029,2,This is a,1,These are both,sunflower,warmup2,NA
372,NA,humming bird,NA,NA,11,warmup/eagle.jpg,hummingbird,This is a,no,1,birds,Jessica,eagle,NA,yes,Please label the pictures below.,40,NA,none,NA,warmup/colibri.jpg,birds,graduated_college,NA,English,male,NA,birds,NA,3,1566830400029,1,This is an,1,These are both,bald eagle,warmup2,NA
372,NA,hummingbird,NA,NA,11,warmup/eagle.jpg,hummingbird,This is a,no,1,birds,Jessica,eagle,NA,yes,Please label the pictures below.,40,NA,none,NA,warmup/colibri.jpg,birds,graduated_college,NA,English,male,NA,birds,NA,3,1566830400029,2,This is an,1,These are both,eagle,warmup2,NA
372,Please rephrase your friend's comment.,NA,It is big relative to other,images/flower-parade-sunflower.png,11,NA,NA,NA,no,1,flowers,Jessica,NA,1,yes,Your friend points to another member of the group which you cannot see and says: <br/><b>That's a big sunflower.</b>,40,that sunflower is large,none,0,NA,NA,graduated_college,big,English,male,NA,NA,You and your friend see the following:,1,1566830400029,NA,NA,1,NA,NA,custom_main_text2,prenominal
372,Please rephrase your friend's comment.,NA,It is small relative to other,images/bird-parade-hummingbird.png,11,NA,NA,NA,no,1,birds,Jessica,NA,1,yes,Your friend points to another member of the group which you cannot see and says: <br/><b> That's a small one.</b>,40,that is a little bird,none,1,NA,NA,graduated_college,small,English,male,NA,NA,You and your friend see the following:,2,1566830400029,NA,NA,1,NA,NA,custom_main_text2,prenominal
372,Please rephrase your friend's comment.,NA,It is big relative to other,images/fish-parade-basic.png,11,NA,NA,NA,no,1,fish,Jessica,NA,0,yes,Your friend points to another member of the group which you cannot see and says: <br/><b>That's a big one.</b>,40,that fish is large,none,1,NA,NA,graduated_college,big,English,male,NA,NA,You and your friend see the following:,3,1566830400029,NA,NA,1,NA,NA,custom_main_text2,prenominal
370,NA,Pug,NA,NA,11,warmup/great-dane.jpg,pug,This is a,No glitches,2,dogs,Patricia,great dane,NA,confused,Please label the pictures below.,40,NA,I read the instructions and tried my best.,NA,warmup/pug.jpg,Dogs,graduated_college,NA,"English, Dutch",female,NA,dogs,NA,1,1566830060499,1,This is a,1,These are both,Great Dane,warmup1,NA
370,NA,Shark,NA,NA,11,warmup/goldfish.png,swordfish,This is a,No glitches,2,fish,Patricia,goldfish,NA,confused,Please label the pictures below.,40,NA,I read the instructions and tried my best.,NA,warmup/swordfish.jpg,Animals,graduated_college,NA,"English, Dutch",female,NA,fish,NA,2,1566830060499,1,This is a,1,These are both,Gold Fish,warmup1,NA
370,NA,Shark,NA,NA,11,warmup/goldfish.png,swordfish,This is a,No glitches,2,fish,Patricia,goldfish,NA,confused,Please label the pictures below.,40,NA,I read the instructions and tried my best.,NA,warmup/swordfish.jpg,Fish,graduated_college,NA,"English, Dutch",female,NA,fish,NA,2,1566830060499,2,This is a,1,These are both,Gold Fish,warmup1,NA
370,NA,Shark,NA,NA,11,warmup/goldfish.png,swordfish,This is a,No glitches,2,fish,Patricia,goldfish,NA,confused,Please label the pictures below.,40,NA,I read the instructions and tried my best.,NA,warmup/swordfish.jpg,Fish,graduated_college,NA,"English, Dutch",female,NA,fish,NA,2,1566830060499,3,This is a,1,These are both,Gold Fish,warmup1,NA
370,NA,Swordfish,NA,NA,11,warmup/goldfish.png,swordfish,This is a,No glitches,2,fish,Patricia,goldfish,NA,confused,Please label the pictures below.,40,NA,I read the instructions and tried my best.,NA,warmup/swordfish.jpg,fish,graduated_college,NA,"English, Dutch",female,NA,fish,NA,2,1566830060499,4,This is a,1,These are both,goldfish,warmup1,NA
370,NA,Sequoia,NA,NA,11,warmup/bonsai.jpg,redwood|sequoia,This is a,No glitches,2,trees,Patricia,bonsai,NA,confused,Please label the pictures below.,40,NA,I read the instructions and tried my best.,NA,warmup/sequoia.jpg,trees,graduated_college,NA,"English, Dutch",female,NA,trees,NA,3,1566830060499,1,This is a,1,These are both,bonsai,warmup1,NA
370,Please rephrase your friend's comment.,NA,It is big relative to other,images/tree-parade-redwood.png,11,NA,NA,NA,No glitches,2,trees,Patricia,NA,1,confused,Your friend points to another member of the group which you cannot see and says: <br/><b>That's a big one.</b>,40,trees,I read the instructions and tried my best.,1,NA,NA,graduated_college,big,"English, Dutch",female,NA,NA,You and your friend see the following:,1,1566830060499,NA,NA,1,NA,NA,custom_main_text1,prenominal
370,Please rephrase your friend's comment.,NA,It is big relative to other,images/dog-parade-great-dane.png,11,NA,NA,NA,No glitches,2,dogs2,Patricia,NA,1,confused,Your friend points to another member of the group which you cannot see and says: <br/><b>That's a big one.</b>,40,dogs,I read the instructions and tried my best.,1,NA,NA,graduated_college,big,"English, Dutch",female,NA,NA,You and your friend see the following:,2,1566830060499,NA,NA,1,NA,NA,custom_main_text1,prenominal
370,Please rephrase your friend's comment.,NA,It is small relative to other,images/fish-parade-goldfish.png,11,NA,NA,NA,No glitches,2,fish,Patricia,NA,1,confused,Your friend points to another member of the group which you cannot see and says: <br/><b>That's a small goldfish.</b>,40,goldfish,I read the instructions and tried my best.,0,NA,NA,graduated_college,small,"English, Dutch",female,NA,NA,You and your friend see the following:,3,1566830060499,NA,NA,1,NA,NA,custom_main_text1,prenominal
370,NA,hummingbird,NA,NA,11,warmup/eagle.jpg,hummingbird,This is a,No glitches,2,birds,Patricia,eagle,NA,confused,Please label the pictures below.,40,NA,I read the instructions and tried my best.,NA,warmup/colibri.jpg,birds,graduated_college,NA,"English, Dutch",female,NA,birds,NA,1,1566830060499,1,This is an,1,These are both,eagle,warmup2,NA
370,NA,dandelion,NA,NA,11,warmup/sunflower.png,dandelion,This is a,No glitches,2,flowers,Patricia,sunflower,NA,confused,Please label the pictures below.,40,NA,I read the instructions and tried my best.,NA,warmup/dandelion.jpg,flowers,graduated_college,NA,"English, Dutch",female,NA,flowers,NA,2,1566830060499,1,This is a,1,These are both,sun flower,warmup2,NA
370,NA,dandelion,NA,NA,11,warmup/sunflower.png,dandelion,This is a,No glitches,2,flowers,Patricia,sunflower,NA,confused,Please label the pictures below.,40,NA,I read the instructions and tried my best.,NA,warmup/dandelion.jpg,flowers,graduated_college,NA,"English, Dutch",female,NA,flowers,NA,2,1566830060499,2,This is a,1,These are both,sunflower,warmup2,NA
370,NA,chihuaha,NA,NA,11,warmup/doberman.png,chihuahua,This is a,No glitches,2,dogs,Patricia,doberman,NA,confused,Please label the pictures below.,40,NA,I read the instructions and tried my best.,NA,warmup/chihuahua.jpg,dogs,graduated_college,NA,"English, Dutch",female,NA,dogs,NA,3,1566830060499,1,This is a,1,These are both,doberman pinscher,warmup2,NA
370,NA,chihuahua,NA,NA,11,warmup/doberman.png,chihuahua,This is a,No glitches,2,dogs,Patricia,doberman,NA,confused,Please label the pictures below.,40,NA,I read the instructions and tried my best.,NA,warmup/chihuahua.jpg,dogs,graduated_college,NA,"English, Dutch",female,NA,dogs,NA,3,1566830060499,2,This is a,1,These are both,doberman,warmup2,NA
370,Please rephrase your friend's comment.,NA,It is big relative to other,images/dog-parade-basic.png,11,NA,NA,NA,No glitches,2,dogs1,Patricia,NA,0,confused,Your friend points to another member of the group which you cannot see and says: <br/><b>That's a big doberman.</b>,40,dogs,I read the instructions and tried my best.,0,NA,NA,graduated_college,big,"English, Dutch",female,NA,NA,You and your friend see the following:,1,1566830060499,NA,NA,1,NA,NA,custom_main_text2,prenominal
370,Please rephrase your friend's comment.,NA,It is small relative to other,images/flower-parade-basic.png,11,NA,NA,NA,No glitches,2,flowers,Patricia,NA,0,confused,Your friend points to another member of the group which you cannot see and says: <br/><b>That's a small one.</b>,40,flowers,I read the instructions and tried my best.,1,NA,NA,graduated_college,small,"English, Dutch",female,NA,NA,You and your friend see the following:,2,1566830060499,NA,NA,1,NA,NA,custom_main_text2,prenominal
370,Please rephrase your friend's comment.,NA,It is small relative to other,images/bird-parade-basic.png,11,NA,NA,NA,No glitches,2,birds,Patricia,NA,0,confused,Your friend points to another member of the group which you cannot see and says: <br/><b> That's a small hummingbird.</b>,40,birds,I read the instructions and tried my best.,0,NA,NA,graduated_college,small,"English, Dutch",female,NA,NA,You and your friend see the following:,3,1566830060499,NA,NA,1,NA,NA,custom_main_text2,prenominal
368,NA,toy,NA,NA,11,warmup/doberman.png,chihuahua,This is a,None.,2,dogs,sarah,doberman,NA,yes,Please label the pictures below.,26,NA,This was a fun survey. Thanks.,NA,warmup/chihuahua.jpg,dogs,graduated_college,NA,English,male,NA,dogs,NA,1,1566829983144,1,This is a,1.25,These are both,doberman,warmup1,NA
368,NA,chihuahua,NA,NA,11,warmup/doberman.png,chihuahua,This is a,None.,2,dogs,sarah,doberman,NA,yes,Please label the pictures below.,26,NA,This was a fun survey. Thanks.,NA,warmup/chihuahua.jpg,dogs,graduated_college,NA,English,male,NA,dogs,NA,1,1566829983144,2,This is a,1.25,These are both,doberman,warmup1,NA
368,NA,hummingbird,NA,NA,11,warmup/eagle.jpg,hummingbird,This is a,None.,2,birds,sarah,eagle,NA,yes,Please label the pictures below.,26,NA,This was a fun survey. Thanks.,NA,warmup/colibri.jpg,birds,graduated_college,NA,English,male,NA,birds,NA,2,1566829983144,1,This is an,1.25,These are both,eagle,warmup1,NA
368,NA,swordfish,NA,NA,11,warmup/goldfish.png,swordfish,This is a,None.,2,fish,sarah,goldfish,NA,yes,Please label the pictures below.,26,NA,This was a fun survey. Thanks.,NA,warmup/swordfish.jpg,fish,graduated_college,NA,English,male,NA,fish,NA,3,1566829983144,1,This is a,1.25,These are both,goldfish,warmup1,NA
368,Please rephrase your friend's comment.,NA,It is small relative to other,images/bird-parade-basic.png,11,NA,NA,NA,None.,2,birds,sarah,NA,0,yes,Your friend points to another member of the group which you cannot see and says: <br/><b> That's a small one.</b>,26,birds,This was a fun survey. Thanks.,1,NA,NA,graduated_college,small,English,male,NA,NA,You and your friend see the following:,1,1566829983144,NA,NA,1.25,NA,NA,custom_main_text1,prenominal
368,Please rephrase your friend's comment.,NA,It is small relative to other,images/fish-parade-goldfish.png,11,NA,NA,NA,None.,2,fish,sarah,NA,1,yes,Your friend points to another member of the group which you cannot see and says: <br/><b>That's a small goldfish.</b>,26,fish,This was a fun survey. Thanks.,0,NA,NA,graduated_college,small,English,male,NA,NA,You and your friend see the following:,2,1566829983144,NA,NA,1.25,NA,NA,custom_main_text1,prenominal
368,Please rephrase your friend's comment.,NA,It is small relative to other,images/dog-parade-basic.png,11,NA,NA,NA,None.,2,dogs1,sarah,NA,0,yes,Your friend points to another member of the group which you cannot see and says: <br/><b>That's a small chihuahua.</b>,26,dogs,This was a fun survey. Thanks.,0,NA,NA,graduated_college,small,English,male,NA,NA,You and your friend see the following:,3,1566829983144,NA,NA,1.25,NA,NA,custom_main_text1,prenominal
368,NA,daisy,NA,NA,11,warmup/sunflower.png,dandelion,This is a,None.,2,flowers,sarah,sunflower,NA,yes,Please label the pictures below.,26,NA,This was a fun survey. Thanks.,NA,warmup/dandelion.jpg,flowers,graduated_college,NA,English,male,NA,flowers,NA,1,1566829983144,1,This is a,1.25,These are both,sunflower,warmup2,NA
368,NA,dandelion,NA,NA,11,warmup/sunflower.png,dandelion,This is a,None.,2,flowers,sarah,sunflower,NA,yes,Please label the pictures below.,26,NA,This was a fun survey. Thanks.,NA,warmup/dandelion.jpg,flowers,graduated_college,NA,English,male,NA,flowers,NA,1,1566829983144,2,This is a,1.25,These are both,sunflower,warmup2,NA
368,NA,evergreen,NA,NA,11,warmup/bonsai.jpg,redwood|sequoia,This is a,None.,2,trees,sarah,bonsai,NA,yes,Please label the pictures below.,26,NA,This was a fun survey. Thanks.,NA,warmup/sequoia.jpg,trees,graduated_college,NA,English,male,NA,trees,NA,2,1566829983144,1,This is a,1.25,These are both,bonsai,warmup2,NA
368,NA,redwood,NA,NA,11,warmup/bonsai.jpg,redwood|sequoia,This is a,None.,2,trees,sarah,bonsai,NA,yes,Please label the pictures below.,26,NA,This was a fun survey. Thanks.,NA,warmup/sequoia.jpg,trees,graduated_college,NA,English,male,NA,trees,NA,2,1566829983144,2,This is a,1.25,These are both,bonsai,warmup2,NA
368,NA,pug,NA,NA,11,warmup/great-dane.jpg,pug,This is a,None.,2,dogs,sarah,great dane,NA,yes,Please label the pictures below.,26,NA,This was a fun survey. Thanks.,NA,warmup/pug.jpg,dogs,graduated_college,NA,English,male,NA,dogs,NA,3,1566829983144,1,This is a,1.25,These are both,Retriever,warmup2,NA
368,NA,pug,NA,NA,11,warmup/great-dane.jpg,pug,This is a,None.,2,dogs,sarah,great dane,NA,yes,Please label the pictures below.,26,NA,This was a fun survey. Thanks.,NA,warmup/pug.jpg,dogs,graduated_college,NA,English,male,NA,dogs,NA,3,1566829983144,2,This is a,1.25,These are both,great dane,warmup2,NA
368,Please rephrase your friend's comment.,NA,It is big relative to other,images/flower-parade-basic.png,11,NA,NA,NA,None.,2,flowers,sarah,NA,0,yes,Your friend points to another member of the group which you cannot see and says: <br/><b>That's a big sunflower.</b>,26,flowers,This was a fun survey. Thanks.,0,NA,NA,graduated_college,big,English,male,NA,NA,You and your friend see the following:,1,1566829983144,NA,NA,1.25,NA,NA,custom_main_text2,prenominal
368,Please rephrase your friend's comment.,NA,It is big relative to other,images/dog-parade-great-dane.png,11,NA,NA,NA,None.,2,dogs2,sarah,NA,1,yes,Your friend points to another member of the group which you cannot see and says: <br/><b>That's a big one.</b>,26,dogs,This was a fun survey. Thanks.,1,NA,NA,graduated_college,big,English,male,NA,NA,You and your friend see the following:,2,1566829983144,NA,NA,1.25,NA,NA,custom_main_text2,prenominal
368,Please rephrase your friend's comment.,NA,It is big relative to other,images/tree-parade-redwood.png,11,NA,NA,NA,None.,2,trees,sarah,NA,1,yes,Your friend points to another member of the group which you cannot see and says: <br/><b>That's a big one.</b>,26,trees,This was a fun survey. Thanks.,1,NA,NA,graduated_college,big,English,male,NA,NA,You and your friend see the following:,3,1566829983144,NA,NA,1.25,NA,NA,custom_main_text2,prenominal
365,NA,tree,NA,NA,11,warmup/bonsai.jpg,redwood|sequoia,This is a,No problems.,1,trees,linda,bonsai,NA,yes,Please label the pictures below.,35,NA,NA,NA,warmup/sequoia.jpg,trees,graduated_college,NA,English,female,NA,trees,NA,1,1566829650838,1,This is a,1,These are both,tree,warmup1,NA
365,NA,redwood,NA,NA,11,warmup/bonsai.jpg,redwood|sequoia,This is a,No problems.,1,trees,linda,bonsai,NA,yes,Please label the pictures below.,35,NA,NA,NA,warmup/sequoia.jpg,trees,graduated_college,NA,English,female,NA,trees,NA,1,1566829650838,2,This is a,1,These are both,bonsai,warmup1,NA
365,NA,weed,NA,NA,11,warmup/sunflower.png,dandelion,This is a,No problems.,1,flowers,linda,sunflower,NA,yes,Please label the pictures below.,35,NA,NA,NA,warmup/dandelion.jpg,flowers,graduated_college,NA,English,female,NA,flowers,NA,2,1566829650838,1,This is a,1,These are both,sunflower,warmup1,NA
365,NA,dandelion,NA,NA,11,warmup/sunflower.png,dandelion,This is a,No problems.,1,flowers,linda,sunflower,NA,yes,Please label the pictures below.,35,NA,NA,NA,warmup/dandelion.jpg,flowers,graduated_college,NA,English,female,NA,flowers,NA,2,1566829650838,2,This is a,1,These are both,sunflower,warmup1,NA
365,NA,chihuaua,NA,NA,11,warmup/doberman.png,chihuahua,This is a,No problems.,1,dogs,linda,doberman,NA,yes,Please label the pictures below.,35,NA,NA,NA,warmup/chihuahua.jpg,dogs,graduated_college,NA,English,female,NA,dogs,NA,3,1566829650838,1,This is a,1,These are both,rottweiler,warmup1,NA
365,NA,chihuahua,NA,NA,11,warmup/doberman.png,chihuahua,This is a,No problems.,1,dogs,linda,doberman,NA,yes,Please label the pictures below.,35,NA,NA,NA,warmup/chihuahua.jpg,dogs,graduated_college,NA,English,female,NA,dogs,NA,3,1566829650838,2,This is a,1,These are both,doberman,warmup1,NA
365,Please rephrase your friend's comment.,NA,It is big relative to other,images/tree-parade-redwood.png,11,NA,NA,NA,No problems.,1,trees,linda,NA,1,yes,Your friend points to another member of the group which you cannot see and says: <br/><b>That's a big redwood.</b>,35,trees,NA,0,NA,NA,graduated_college,big,English,female,NA,NA,You and your friend see the following:,1,1566829650838,NA,NA,1,NA,NA,custom_main_text1,prenominal
365,Please rephrase your friend's comment.,NA,It is small relative to other,images/dog-parade-basic.png,11,NA,NA,NA,No problems.,1,dogs1,linda,NA,0,yes,Your friend points to another member of the group which you cannot see and says: <br/><b>That's a small one.</b>,35,dogs,NA,1,NA,NA,graduated_college,small,English,female,NA,NA,You and your friend see the following:,2,1566829650838,NA,NA,1,NA,NA,custom_main_text1,prenominal
365,Please rephrase your friend's comment.,NA,It is big relative to other,images/flower-parade-basic.png,11,NA,NA,NA,No problems.,1,flowers,linda,NA,0,yes,Your friend points to another member of the group which you cannot see and says: <br/><b>That's a big sunflower.</b>,35,flowers,NA,0,NA,NA,graduated_college,big,English,female,NA,NA,You and your friend see the following:,3,1566829650838,NA,NA,1,NA,NA,custom_main_text1,prenominal
365,NA,hummingbird,NA,NA,11,warmup/eagle.jpg,hummingbird,This is a,No problems.,1,birds,linda,eagle,NA,yes,Please label the pictures below.,35,NA,NA,NA,warmup/colibri.jpg,birds,graduated_college,NA,English,female,NA,birds,NA,1,1566829650838,1,This is an,1,These are both,eagle,warmup2,NA
365,NA,pug,NA,NA,11,warmup/great-dane.jpg,pug,This is a,No problems.,1,dogs,linda,great dane,NA,yes,Please label the pictures below.,35,NA,NA,NA,warmup/pug.jpg,dogs,graduated_college,NA,English,female,NA,dogs,NA,2,1566829650838,1,This is a,1,These are both,doberman,warmup2,NA
365,NA,pug,NA,NA,11,warmup/great-dane.jpg,pug,This is a,No problems.,1,dogs,linda,great dane,NA,yes,Please label the pictures below.,35,NA,NA,NA,warmup/pug.jpg,dogs,graduated_college,NA,English,female,NA,dogs,NA,2,1566829650838,2,This is a,1,These are both,great dane,warmup2,NA
365,NA,swordfish,NA,NA,11,warmup/goldfish.png,swordfish,This is a,No problems.,1,fish,linda,goldfish,NA,yes,Please label the pictures below.,35,NA,NA,NA,warmup/swordfish.jpg,fish,graduated_college,NA,English,female,NA,fish,NA,3,1566829650838,1,This is a,1,These are both,goldfish,warmup2,NA
365,Please rephrase your friend's comment.,NA,It is small relative to other,images/bird-parade-hummingbird.png,11,NA,NA,NA,No problems.,1,birds,linda,NA,1,yes,Your friend points to another member of the group which you cannot see and says: <br/><b> That's a small one.</b>,35,birds,NA,1,NA,NA,graduated_college,small,English,female,NA,NA,You and your friend see the following:,1,1566829650838,NA,NA,1,NA,NA,custom_main_text2,prenominal
365,Please rephrase your friend's comment.,NA,It is big relative to other,images/dog-parade-great-dane.png,11,NA,NA,NA,No problems.,1,dogs2,linda,NA,1,yes,Your friend points to another member of the group which you cannot see and says: <br/><b>That's a big one.</b>,35,dogs,NA,1,NA,NA,graduated_college,big,English,female,NA,NA,You and your friend see the following:,2,1566829650838,NA,NA,1,NA,NA,custom_main_text2,prenominal
365,Please rephrase your friend's comment.,NA,It is small relative to other,images/fish-parade-basic.png,11,NA,NA,NA,No problems.,1,fish,linda,NA,0,yes,Your friend points to another member of the group which you cannot see and says: <br/><b>That's a small goldfish.</b>,35,fish,NA,0,NA,NA,graduated_college,small,English,female,NA,NA,You and your friend see the following:,3,1566829650838,NA,NA,1,NA,NA,custom_main_text2,prenominal
363,NA,tree,NA,NA,11,warmup/bonsai.jpg,redwood|sequoia,This is a,NA,1,trees,barbara,bonsai,NA,yes,Please label the pictures below.,25,NA,NA,NA,warmup/sequoia.jpg,plants,graduated_college,NA,English,male,NA,trees,NA,1,1566829124260,1,This is a,2,These are both,shrub,warmup1,NA
363,NA,tree,NA,NA,11,warmup/bonsai.jpg,redwood|sequoia,This is a,NA,1,trees,barbara,bonsai,NA,yes,Please label the pictures below.,25,NA,NA,NA,warmup/sequoia.jpg,plants,graduated_college,NA,English,male,NA,trees,NA,1,1566829124260,2,This is a,2,These are both,shrub,warmup1,NA
363,NA,tree,NA,NA,11,warmup/bonsai.jpg,redwood|sequoia,This is a,NA,1,trees,barbara,bonsai,NA,yes,Please label the pictures below.,25,NA,NA,NA,warmup/sequoia.jpg,plants,graduated_college,NA,English,male,NA,trees,NA,1,1566829124260,3,This is a,2,These are both,shrub,warmup1,NA
363,NA,tree,NA,NA,11,warmup/bonsai.jpg,redwood|sequoia,This is a,NA,1,trees,barbara,bonsai,NA,yes,Please label the pictures below.,25,NA,NA,NA,warmup/sequoia.jpg,plants,graduated_college,NA,English,male,NA,trees,NA,1,1566829124260,4,This is a,2,These are both,shrub,warmup1,NA
363,NA,tree,NA,NA,11,warmup/bonsai.jpg,redwood|sequoia,This is a,NA,1,trees,barbara,bonsai,NA,yes,Please label the pictures below.,25,NA,NA,NA,warmup/sequoia.jpg,plants,graduated_college,NA,English,male,NA,trees,NA,1,1566829124260,5,This is a,2,These are both,shrub,warmup1,NA
363,NA,tree,NA,NA,11,warmup/bonsai.jpg,redwood|sequoia,This is a,NA,1,trees,barbara,bonsai,NA,yes,Please label the pictures below.,25,NA,NA,NA,warmup/sequoia.jpg,plants,graduated_college,NA,English,male,NA,trees,NA,1,1566829124260,6,This is a,2,These are both,shrub,warmup1,NA
363,NA,tree,NA,NA,11,warmup/bonsai.jpg,redwood|sequoia,This is a,NA,1,trees,barbara,bonsai,NA,yes,Please label the pictures below.,25,NA,NA,NA,warmup/sequoia.jpg,plants,graduated_college,NA,English,male,NA,trees,NA,1,1566829124260,7,This is a,2,These are both,shrub,warmup1,NA
363,NA,tree,NA,NA,11,warmup/bonsai.jpg,redwood|sequoia,This is a,NA,1,trees,barbara,bonsai,NA,yes,Please label the pictures below.,25,NA,NA,NA,warmup/sequoia.jpg,plants,graduated_college,NA,English,male,NA,trees,NA,1,1566829124260,8,This is a,2,These are both,shrub,warmup1,NA
363,NA,redwood,NA,NA,11,warmup/bonsai.jpg,redwood|sequoia,This is a,NA,1,trees,barbara,bonsai,NA,yes,Please label the pictures below.,25,NA,NA,NA,warmup/sequoia.jpg,trees,graduated_college,NA,English,male,NA,trees,NA,1,1566829124260,9,This is a,2,These are both,bonsai,warmup1,NA
363,NA,hummingbird,NA,NA,11,warmup/eagle.jpg,hummingbird,This is a,NA,1,birds,barbara,eagle,NA,yes,Please label the pictures below.,25,NA,NA,NA,warmup/colibri.jpg,birds,graduated_college,NA,English,male,NA,birds,NA,2,1566829124260,1,This is an,2,These are both,eagle,warmup1,NA
363,NA,Daisy,NA,NA,11,warmup/sunflower.png,dandelion,This is a,NA,1,flowers,barbara,sunflower,NA,yes,Please label the pictures below.,25,NA,NA,NA,warmup/dandelion.jpg,Flowers,graduated_college,NA,English,male,NA,flowers,NA,3,1566829124260,1,This is a,2,These are both,Sunflower,warmup1,NA
363,NA,Dandelion,NA,NA,11,warmup/sunflower.png,dandelion,This is a,NA,1,flowers,barbara,sunflower,NA,yes,Please label the pictures below.,25,NA,NA,NA,warmup/dandelion.jpg,Flowers,graduated_college,NA,English,male,NA,flowers,NA,3,1566829124260,2,This is a,2,These are both,Sunflower,warmup1,NA
363,Please rephrase your friend's comment.,NA,It is small relative to other,images/bird-parade-basic.png,11,NA,NA,NA,NA,1,birds,barbara,NA,0,yes,Your friend points to another member of the group which you cannot see and says: <br/><b> That's a small one.</b>,25,birds,NA,1,NA,NA,graduated_college,small,English,male,NA,NA,You and your friend see the following:,1,1566829124260,NA,NA,2,NA,NA,custom_main_text1,prenominal
363,Please rephrase your friend's comment.,NA,It is big relative to other,images/tree-parade-redwood.png,11,NA,NA,NA,NA,1,trees,barbara,NA,1,yes,Your friend points to another member of the group which you cannot see and says: <br/><b>That's a big one.</b>,25,trees,NA,1,NA,NA,graduated_college,big,English,male,NA,NA,You and your friend see the following:,2,1566829124260,NA,NA,2,NA,NA,custom_main_text1,prenominal
363,Please rephrase your friend's comment.,NA,It is small relative to other,images/flower-parade-basic.png,11,NA,NA,NA,NA,1,flowers,barbara,NA,0,yes,Your friend points to another member of the group which you cannot see and says: <br/><b>That's a small dandelion.</b>,25,flowers,NA,0,NA,NA,graduated_college,small,English,male,NA,NA,You and your friend see the following:,3,1566829124260,NA,NA,2,NA,NA,custom_main_text1,prenominal
363,NA,Pug,NA,NA,11,warmup/great-dane.jpg,pug,This is a,NA,1,dogs,barbara,great dane,NA,yes,Please label the pictures below.,25,NA,NA,NA,warmup/pug.jpg,Dogs,graduated_college,NA,English,male,NA,dogs,NA,1,1566829124260,1,This is a,2,These are both,Dane,warmup2,NA
363,NA,Pug,NA,NA,11,warmup/great-dane.jpg,pug,This is a,NA,1,dogs,barbara,great dane,NA,yes,Please label the pictures below.,25,NA,NA,NA,warmup/pug.jpg,Dogs,graduated_college,NA,English,male,NA,dogs,NA,1,1566829124260,2,This is a,2,These are both,great Dane,warmup2,NA
363,NA,Chihuahua,NA,NA,11,warmup/doberman.png,chihuahua,This is a,NA,1,dogs,barbara,doberman,NA,yes,Please label the pictures below.,25,NA,NA,NA,warmup/chihuahua.jpg,dog,graduated_college,NA,English,male,NA,dogs,NA,2,1566829124260,1,This is a,2,These are both,Doberman,warmup2,NA
363,NA,Chihuahua,NA,NA,11,warmup/doberman.png,chihuahua,This is a,NA,1,dogs,barbara,doberman,NA,yes,Please label the pictures below.,25,NA,NA,NA,warmup/chihuahua.jpg,dogs,graduated_college,NA,English,male,NA,dogs,NA,2,1566829124260,2,This is a,2,These are both,Doberman,warmup2,NA
363,NA,Swordfish,NA,NA,11,warmup/goldfish.png,swordfish,This is a,NA,1,fish,barbara,goldfish,NA,yes,Please label the pictures below.,25,NA,NA,NA,warmup/swordfish.jpg,fish,graduated_college,NA,English,male,NA,fish,NA,3,1566829124260,1,This is a,2,These are both,goldfish,warmup2,NA
363,Please rephrase your friend's comment.,NA,It is big relative to other,images/fish-parade-basic.png,11,NA,NA,NA,NA,1,fish,barbara,NA,0,yes,Your friend points to another member of the group which you cannot see and says: <br/><b>That's a big one.</b>,25,fish,NA,1,NA,NA,graduated_college,big,English,male,NA,NA,You and your friend see the following:,1,1566829124260,NA,NA,2,NA,NA,custom_main_text2,prenominal
363,Please rephrase your friend's comment.,NA,It is small relative to other,images/dog-parade-pug.png,11,NA,NA,NA,NA,1,dogs2,barbara,NA,1,yes,Your friend points to another member of the group which you cannot see and says: <br/><b>That's a small pug.</b>,25,dogs,NA,0,NA,NA,graduated_college,small,English,male,NA,NA,You and your friend see the following:,2,1566829124260,NA,NA,2,NA,NA,custom_main_text2,prenominal
363,Please rephrase your friend's comment.,NA,It is big relative to other,images/dog-parade-doberman.png,11,NA,NA,NA,NA,1,dogs1,barbara,NA,1,yes,Your friend points to another member of the group which you cannot see and says: <br/><b>That's a big doberman.</b>,25,Dogs,NA,0,NA,NA,graduated_college,big,English,male,NA,NA,You and your friend see the following:,3,1566829124260,NA,NA,2,NA,NA,custom_main_text2,prenominal
361,NA,small dog,NA,NA,11,warmup/doberman.png,chihuahua,This is a,NA,2,dogs,patricia,doberman,NA,yes,Please label the pictures below.,23,NA,NA,NA,warmup/chihuahua.jpg,dogs,graduated_college,NA,NA,female,NA,dogs,NA,1,1566829360975,1,This is a,NA,These are both,big dog,warmup1,NA
361,NA,chihuahua,NA,NA,11,warmup/doberman.png,chihuahua,This is a,NA,2,dogs,patricia,doberman,NA,yes,Please label the pictures below.,23,NA,NA,NA,warmup/chihuahua.jpg,dogs,graduated_college,NA,NA,female,NA,dogs,NA,1,1566829360975,2,This is a,NA,These are both,doberman,warmup1,NA
361,NA,spearfish,NA,NA,11,warmup/goldfish.png,swordfish,This is a,NA,2,fish,patricia,goldfish,NA,yes,Please label the pictures below.,23,NA,NA,NA,warmup/swordfish.jpg,sea animals,graduated_college,NA,NA,female,NA,fish,NA,2,1566829360975,1,This is a,NA,These are both,goldfish,warmup1,NA
361,NA,swordfish,NA,NA,11,warmup/goldfish.png,swordfish,This is a,NA,2,fish,patricia,goldfish,NA,yes,Please label the pictures below.,23,NA,NA,NA,warmup/swordfish.jpg,fish,graduated_college,NA,NA,female,NA,fish,NA,2,1566829360975,2,This is a,NA,These are both,goldfish,warmup1,NA
361,NA,tree,NA,NA,11,warmup/bonsai.jpg,redwood|sequoia,This is a,NA,2,trees,patricia,bonsai,NA,yes,Please label the pictures below.,23,NA,NA,NA,warmup/sequoia.jpg,plants,graduated_college,NA,NA,female,NA,trees,NA,3,1566829360975,1,This is a,NA,These are both,plant,warmup1,NA
361,NA,redwood,NA,NA,11,warmup/bonsai.jpg,redwood|sequoia,This is a,NA,2,trees,patricia,bonsai,NA,yes,Please label the pictures below.,23,NA,NA,NA,warmup/sequoia.jpg,trees,graduated_college,NA,NA,female,NA,trees,NA,3,1566829360975,2,This is a,NA,These are both,bonsai,warmup1,NA
361,Please rephrase your friend's comment.,NA,It is small relative to other,images/tree-parade-bonsai.png,11,NA,NA,NA,NA,2,trees,patricia,NA,1,yes,Your friend points to another member of the group which you cannot see and says: <br/><b>That's a small one.</b>,23,trees,NA,1,NA,NA,graduated_college,small,NA,female,NA,NA,You and your friend see the following:,1,1566829360975,NA,NA,NA,NA,NA,custom_main_text1,prenominal
361,Please rephrase your friend's comment.,NA,It is small relative to other,images/dog-parade-chihuahua.png,11,NA,NA,NA,NA,2,dogs1,patricia,NA,1,yes,Your friend points to another member of the group which you cannot see and says: <br/><b>That's a small chihuahua.</b>,23,dogs,NA,0,NA,NA,graduated_college,small,NA,female,NA,NA,You and your friend see the following:,2,1566829360975,NA,NA,NA,NA,NA,custom_main_text1,prenominal
361,Please rephrase your friend's comment.,NA,It is small relative to other,images/fish-parade-basic.png,11,NA,NA,NA,NA,2,fish,patricia,NA,0,yes,Your friend points to another member of the group which you cannot see and says: <br/><b>That's a small one.</b>,23,fish,NA,1,NA,NA,graduated_college,small,NA,female,NA,NA,You and your friend see the following:,3,1566829360975,NA,NA,NA,NA,NA,custom_main_text1,prenominal
361,NA,bulldog,NA,NA,11,warmup/great-dane.jpg,pug,This is a,NA,2,dogs,patricia,great dane,NA,yes,Please label the pictures below.,23,NA,NA,NA,warmup/pug.jpg,dogs,graduated_college,NA,NA,female,NA,dogs,NA,1,1566829360975,1,This is a,NA,These are both,dalmatian,warmup2,NA
361,NA,pug,NA,NA,11,warmup/great-dane.jpg,pug,This is a,NA,2,dogs,patricia,great dane,NA,yes,Please label the pictures below.,23,NA,NA,NA,warmup/pug.jpg,dogs,graduated_college,NA,NA,female,NA,dogs,NA,1,1566829360975,2,This is a,NA,These are both,great dane,warmup2,NA
361,NA,chirp,NA,NA,11,warmup/eagle.jpg,hummingbird,This is a,NA,2,birds,patricia,eagle,NA,yes,Please label the pictures below.,23,NA,NA,NA,warmup/colibri.jpg,birds,graduated_college,NA,NA,female,NA,birds,NA,2,1566829360975,1,This is an,NA,These are both,eagle,warmup2,NA
361,NA,hummingbird,NA,NA,11,warmup/eagle.jpg,hummingbird,This is a,NA,2,birds,patricia,eagle,NA,yes,Please label the pictures below.,23,NA,NA,NA,warmup/colibri.jpg,birds,graduated_college,NA,NA,female,NA,birds,NA,2,1566829360975,2,This is an,NA,These are both,eagle,warmup2,NA
361,NA,chia,NA,NA,11,warmup/sunflower.png,dandelion,This is a,NA,2,flowers,patricia,sunflower,NA,yes,Please label the pictures below.,23,NA,NA,NA,warmup/dandelion.jpg,flowers,graduated_college,NA,NA,female,NA,flowers,NA,3,1566829360975,1,This is a,NA,These are both,sunflower,warmup2,NA
361,NA,dandelion,NA,NA,11,warmup/sunflower.png,dandelion,This is a,NA,2,flowers,patricia,sunflower,NA,yes,Please label the pictures below.,23,NA,NA,NA,warmup/dandelion.jpg,flowers,graduated_college,NA,NA,female,NA,flowers,NA,3,1566829360975,2,This is a,NA,These are both,sunflower,warmup2,NA
361,Please rephrase your friend's comment.,NA,It is big relative to other,images/dog-parade-basic2.png,11,NA,NA,NA,NA,2,dogs2,patricia,NA,0,yes,Your friend points to another member of the group which you cannot see and says: <br/><b>That's a big great dane.</b>,23,dogs,NA,0,NA,NA,graduated_college,big,NA,female,NA,NA,You and your friend see the following:,1,1566829360975,NA,NA,NA,NA,NA,custom_main_text2,prenominal
361,Please rephrase your friend's comment.,NA,It is big relative to other,images/flower-parade-basic.png,11,NA,NA,NA,NA,2,flowers,patricia,NA,0,yes,Your friend points to another member of the group which you cannot see and says: <br/><b>That's a big one.</b>,23,flowers,NA,1,NA,NA,graduated_college,big,NA,female,NA,NA,You and your friend see the following:,2,1566829360975,NA,NA,NA,NA,NA,custom_main_text2,prenominal
361,Please rephrase your friend's comment.,NA,It is big relative to other,images/bird-parade-eagle.png,11,NA,NA,NA,NA,2,birds,patricia,NA,1,yes,Your friend points to another member of the group which you cannot see and says: <br/><b> That's a big eagle.</b>,23,birds,NA,0,NA,NA,graduated_college,big,NA,female,NA,NA,You and your friend see the following:,3,1566829360975,NA,NA,NA,NA,NA,custom_main_text2,prenominal
356,NA,chihuahau,NA,NA,11,warmup/doberman.png,chihuahua,This is a,NA,1,dogs,elizabeth,doberman,NA,yes,Please label the pictures below.,36,NA,NA,NA,warmup/chihuahua.jpg,dogs,graduated_college,NA,English,male,NA,dogs,NA,1,1566829149861,1,This is a,1,These are both,doberman,warmup1,NA
356,NA,chihuahua,NA,NA,11,warmup/doberman.png,chihuahua,This is a,NA,1,dogs,elizabeth,doberman,NA,yes,Please label the pictures below.,36,NA,NA,NA,warmup/chihuahua.jpg,dogs,graduated_college,NA,English,male,NA,dogs,NA,1,1566829149861,2,This is a,1,These are both,doberman,warmup1,NA
356,NA,pug,NA,NA,11,warmup/great-dane.jpg,pug,This is a,NA,1,dogs,elizabeth,great dane,NA,yes,Please label the pictures below.,36,NA,NA,NA,warmup/pug.jpg,dogs,graduated_college,NA,English,male,NA,dogs,NA,2,1566829149861,1,This is a,1,These are both,dog,warmup1,NA
356,NA,pug,NA,NA,11,warmup/great-dane.jpg,pug,This is a,NA,1,dogs,elizabeth,great dane,NA,yes,Please label the pictures below.,36,NA,NA,NA,warmup/pug.jpg,dogs,graduated_college,NA,English,male,NA,dogs,NA,2,1566829149861,2,This is a,1,These are both,great dane,warmup1,NA
356,NA,marlin,NA,NA,11,warmup/goldfish.png,swordfish,This is a,NA,1,fish,elizabeth,goldfish,NA,yes,Please label the pictures below.,36,NA,NA,NA,warmup/swordfish.jpg,fish,graduated_college,NA,English,male,NA,fish,NA,3,1566829149861,1,This is a,1,These are both,goldfish,warmup1,NA
356,NA,swordfish,NA,NA,11,warmup/goldfish.png,swordfish,This is a,NA,1,fish,elizabeth,goldfish,NA,yes,Please label the pictures below.,36,NA,NA,NA,warmup/swordfish.jpg,fish,graduated_college,NA,English,male,NA,fish,NA,3,1566829149861,2,This is a,1,These are both,goldfish,warmup1,NA
356,Please rephrase your friend's comment.,NA,It is big relative to other,images/dog-parade-basic2.png,11,NA,NA,NA,NA,1,dogs2,elizabeth,NA,0,yes,Your friend points to another member of the group which you cannot see and says: <br/><b>That's a big one.</b>,36,dogs in the line,NA,1,NA,NA,graduated_college,big,English,male,NA,NA,You and your friend see the following:,1,1566829149861,NA,NA,1,NA,NA,custom_main_text1,prenominal
356,Please rephrase your friend's comment.,NA,It is small relative to other,images/fish-parade-goldfish.png,11,NA,NA,NA,NA,1,fish,elizabeth,NA,1,yes,Your friend points to another member of the group which you cannot see and says: <br/><b>That's a small goldfish.</b>,36,fish,NA,0,NA,NA,graduated_college,small,English,male,NA,NA,You and your friend see the following:,2,1566829149861,NA,NA,1,NA,NA,custom_main_text1,prenominal
356,Please rephrase your friend's comment.,NA,It is small relative to other,images/dog-parade-basic.png,11,NA,NA,NA,NA,1,dogs1,elizabeth,NA,0,yes,Your friend points to another member of the group which you cannot see and says: <br/><b>That's a small chihuahua.</b>,36,dogs in the line,NA,0,NA,NA,graduated_college,small,English,male,NA,NA,You and your friend see the following:,3,1566829149861,NA,NA,1,NA,NA,custom_main_text1,prenominal
356,NA,hummingbird,NA,NA,11,warmup/eagle.jpg,hummingbird,This is a,NA,1,birds,elizabeth,eagle,NA,yes,Please label the pictures below.,36,NA,NA,NA,warmup/colibri.jpg,birds,graduated_college,NA,English,male,NA,birds,NA,1,1566829149861,1,This is an,1,These are both,eagle,warmup2,NA
356,NA,redwood,NA,NA,11,warmup/bonsai.jpg,redwood|sequoia,This is a,NA,1,trees,elizabeth,bonsai,NA,yes,Please label the pictures below.,36,NA,NA,NA,warmup/sequoia.jpg,trees,graduated_college,NA,English,male,NA,trees,NA,2,1566829149861,1,This is a,1,These are both,bonzai,warmup2,NA
356,NA,redwood,NA,NA,11,warmup/bonsai.jpg,redwood|sequoia,This is a,NA,1,trees,elizabeth,bonsai,NA,yes,Please label the pictures below.,36,NA,NA,NA,warmup/sequoia.jpg,trees,graduated_college,NA,English,male,NA,trees,NA,2,1566829149861,2,This is a,1,These are both,bonsai,warmup2,NA
356,NA,daisy,NA,NA,11,warmup/sunflower.png,dandelion,This is a,NA,1,flowers,elizabeth,sunflower,NA,yes,Please label the pictures below.,36,NA,NA,NA,warmup/dandelion.jpg,flowers,graduated_college,NA,English,male,NA,flowers,NA,3,1566829149861,1,This is a,1,These are both,sunflower,warmup2,NA
356,NA,dandelion,NA,NA,11,warmup/sunflower.png,dandelion,This is a,NA,1,flowers,elizabeth,sunflower,NA,yes,Please label the pictures below.,36,NA,NA,NA,warmup/dandelion.jpg,flowers,graduated_college,NA,English,male,NA,flowers,NA,3,1566829149861,2,This is a,1,These are both,sunflower,warmup2,NA
356,Please rephrase your friend's comment.,NA,It is big relative to other,images/bird-parade-basic.png,11,NA,NA,NA,NA,1,birds,elizabeth,NA,0,yes,Your friend points to another member of the group which you cannot see and says: <br/><b> That's a big eagle.</b>,36,other birds in the group,NA,0,NA,NA,graduated_college,big,English,male,NA,NA,You and your friend see the following:,1,1566829149861,NA,NA,1,NA,NA,custom_main_text2,prenominal
356,Please rephrase your friend's comment.,NA,It is small relative to other,images/tree-parade-bonsai.png,11,NA,NA,NA,NA,1,trees,elizabeth,NA,1,yes,Your friend points to another member of the group which you cannot see and says: <br/><b>That's a small one.</b>,36,trees,NA,1,NA,NA,graduated_college,small,English,male,NA,NA,You and your friend see the following:,2,1566829149861,NA,NA,1,NA,NA,custom_main_text2,prenominal
356,Please rephrase your friend's comment.,NA,It is big relative to other,images/flower-parade-sunflower.png,11,NA,NA,NA,NA,1,flowers,elizabeth,NA,1,yes,Your friend points to another member of the group which you cannot see and says: <br/><b>That's a big one.</b>,36,flowers,NA,1,NA,NA,graduated_college,big,English,male,NA,NA,You and your friend see the following:,3,1566829149861,NA,NA,1,NA,NA,custom_main_text2,prenominal
354,NA,hummingbird,NA,NA,11,warmup/eagle.jpg,hummingbird,This is a,i couldn't answer the price question,1,birds,elizabeth,eagle,NA,NA,Please label the pictures below.,41,NA,NA,NA,warmup/colibri.jpg,birds,higher_degree,NA,englsih,female,NA,birds,NA,1,1566829010351,1,This is an,0,These are both,eagle,warmup1,NA
354,NA,dandiloin,NA,NA,11,warmup/sunflower.png,dandelion,This is a,i couldn't answer the price question,1,flowers,elizabeth,sunflower,NA,NA,Please label the pictures below.,41,NA,NA,NA,warmup/dandelion.jpg,yellow,higher_degree,NA,englsih,female,NA,flowers,NA,2,1566829010351,1,This is a,0,These are both,sunflower,warmup1,NA
354,NA,dandiloin,NA,NA,11,warmup/sunflower.png,dandelion,This is a,i couldn't answer the price question,1,flowers,elizabeth,sunflower,NA,NA,Please label the pictures below.,41,NA,NA,NA,warmup/dandelion.jpg,flowers,higher_degree,NA,englsih,female,NA,flowers,NA,2,1566829010351,2,This is a,0,These are both,sunflower,warmup1,NA
354,NA,dandiloin,NA,NA,11,warmup/sunflower.png,dandelion,This is a,i couldn't answer the price question,1,flowers,elizabeth,sunflower,NA,NA,Please label the pictures below.,41,NA,NA,NA,warmup/dandelion.jpg,flowers,higher_degree,NA,englsih,female,NA,flowers,NA,2,1566829010351,3,This is a,0,These are both,sunflower,warmup1,NA
354,NA,dandiloin,NA,NA,11,warmup/sunflower.png,dandelion,This is a,i couldn't answer the price question,1,flowers,elizabeth,sunflower,NA,NA,Please label the pictures below.,41,NA,NA,NA,warmup/dandelion.jpg,flowers,higher_degree,NA,englsih,female,NA,flowers,NA,2,1566829010351,4,This is a,0,These are both,sunflower,warmup1,NA
354,NA,dandelion,NA,NA,11,warmup/sunflower.png,dandelion,This is a,i couldn't answer the price question,1,flowers,elizabeth,sunflower,NA,NA,Please label the pictures below.,41,NA,NA,NA,warmup/dandelion.jpg,flowers,higher_degree,NA,englsih,female,NA,flowers,NA,2,1566829010351,5,This is a,0,These are both,sunflower,warmup1,NA
354,NA,chiuaua,NA,NA,11,warmup/doberman.png,chihuahua,This is a,i couldn't answer the price question,1,dogs,elizabeth,doberman,NA,NA,Please label the pictures below.,41,NA,NA,NA,warmup/chihuahua.jpg,dogs,higher_degree,NA,englsih,female,NA,dogs,NA,3,1566829010351,1,This is a,0,These are both,doberman,warmup1,NA
354,NA,chihuahua,NA,NA,11,warmup/doberman.png,chihuahua,This is a,i couldn't answer the price question,1,dogs,elizabeth,doberman,NA,NA,Please label the pictures below.,41,NA,NA,NA,warmup/chihuahua.jpg,dogs,higher_degree,NA,englsih,female,NA,dogs,NA,3,1566829010351,2,This is a,0,These are both,doberman,warmup1,NA
354,Please rephrase your friend's comment.,NA,It is big relative to other,images/bird-parade-eagle.png,11,NA,NA,NA,i couldn't answer the price question,1,birds,elizabeth,NA,1,NA,Your friend points to another member of the group which you cannot see and says: <br/><b> That's a big eagle.</b>,41,birds,NA,0,NA,NA,higher_degree,big,englsih,female,NA,NA,You and your friend see the following:,1,1566829010351,NA,NA,0,NA,NA,custom_main_text1,prenominal
354,Please rephrase your friend's comment.,NA,It is small relative to other,images/flower-parade-basic.png,11,NA,NA,NA,i couldn't answer the price question,1,flowers,elizabeth,NA,0,NA,Your friend points to another member of the group which you cannot see and says: <br/><b>That's a small one.</b>,41,flowers,NA,1,NA,NA,higher_degree,small,englsih,female,NA,NA,You and your friend see the following:,2,1566829010351,NA,NA,0,NA,NA,custom_main_text1,prenominal
354,Please rephrase your friend's comment.,NA,It is big relative to other,images/dog-parade-basic.png,11,NA,NA,NA,i couldn't answer the price question,1,dogs1,elizabeth,NA,0,NA,Your friend points to another member of the group which you cannot see and says: <br/><b>That's a big one.</b>,41,dogs,NA,1,NA,NA,higher_degree,big,englsih,female,NA,NA,You and your friend see the following:,3,1566829010351,NA,NA,0,NA,NA,custom_main_text1,prenominal
354,NA,tuna,NA,NA,11,warmup/goldfish.png,swordfish,This is a,i couldn't answer the price question,1,fish,elizabeth,goldfish,NA,NA,Please label the pictures below.,41,NA,NA,NA,warmup/swordfish.jpg,fish,higher_degree,NA,englsih,female,NA,fish,NA,1,1566829010351,1,This is a,0,These are both,goldfish,warmup2,NA
354,NA,swordfish,NA,NA,11,warmup/goldfish.png,swordfish,This is a,i couldn't answer the price question,1,fish,elizabeth,goldfish,NA,NA,Please label the pictures below.,41,NA,NA,NA,warmup/swordfish.jpg,fish,higher_degree,NA,englsih,female,NA,fish,NA,1,1566829010351,2,This is a,0,These are both,goldfish,warmup2,NA
354,NA,oak,NA,NA,11,warmup/bonsai.jpg,redwood|sequoia,This is a,i couldn't answer the price question,1,trees,elizabeth,bonsai,NA,NA,Please label the pictures below.,41,NA,NA,NA,warmup/sequoia.jpg,trees,higher_degree,NA,englsih,female,NA,trees,NA,2,1566829010351,1,This is a,0,These are both,bonsi,warmup2,NA
354,NA,redwood,NA,NA,11,warmup/bonsai.jpg,redwood|sequoia,This is a,i couldn't answer the price question,1,trees,elizabeth,bonsai,NA,NA,Please label the pictures below.,41,NA,NA,NA,warmup/sequoia.jpg,trees,higher_degree,NA,englsih,female,NA,trees,NA,2,1566829010351,2,This is a,0,These are both,bonsai,warmup2,NA
354,NA,pug,NA,NA,11,warmup/great-dane.jpg,pug,This is a,i couldn't answer the price question,1,dogs,elizabeth,great dane,NA,NA,Please label the pictures below.,41,NA,NA,NA,warmup/pug.jpg,dogs,higher_degree,NA,englsih,female,NA,dogs,NA,3,1566829010351,1,This is a,0,These are both,great dane,warmup2,NA
354,Please rephrase your friend's comment.,NA,It is big relative to other,images/dog-parade-great-dane.png,11,NA,NA,NA,i couldn't answer the price question,1,dogs2,elizabeth,NA,1,NA,Your friend points to another member of the group which you cannot see and says: <br/><b>That's a big great dane.</b>,41,great danes,NA,0,NA,NA,higher_degree,big,englsih,female,NA,NA,You and your friend see the following:,1,1566829010351,NA,NA,0,NA,NA,custom_main_text2,prenominal
354,Please rephrase your friend's comment.,NA,It is small relative to other,images/tree-parade-bonsai.png,11,NA,NA,NA,i couldn't answer the price question,1,trees,elizabeth,NA,1,NA,Your friend points to another member of the group which you cannot see and says: <br/><b>That's a small one.</b>,41,bonsai,NA,1,NA,NA,higher_degree,small,englsih,female,NA,NA,You and your friend see the following:,2,1566829010351,NA,NA,0,NA,NA,custom_main_text2,prenominal
354,Please rephrase your friend's comment.,NA,It is small relative to other,images/fish-parade-basic.png,11,NA,NA,NA,i couldn't answer the price question,1,fish,elizabeth,NA,0,NA,Your friend points to another member of the group which you cannot see and says: <br/><b>That's a small goldfish.</b>,41,fish,NA,0,NA,NA,higher_degree,small,englsih,female,NA,NA,You and your friend see the following:,3,1566829010351,NA,NA,0,NA,NA,custom_main_text2,prenominal
353,NA,dog,NA,NA,11,warmup/doberman.png,chihuahua,This is a,NA,1,dogs,susan,doberman,NA,yes,Please label the pictures below.,25,NA,NA,NA,warmup/chihuahua.jpg,dogs,graduated_high_school,NA,English,male,NA,dogs,NA,1,1566829042026,1,This is a,1,These are both,dog,warmup1,NA
353,NA,chihuahua,NA,NA,11,warmup/doberman.png,chihuahua,This is a,NA,1,dogs,susan,doberman,NA,yes,Please label the pictures below.,25,NA,NA,NA,warmup/chihuahua.jpg,dogs,graduated_high_school,NA,English,male,NA,dogs,NA,1,1566829042026,2,This is a,1,These are both,doberman,warmup1,NA
353,NA,tree,NA,NA,11,warmup/bonsai.jpg,redwood|sequoia,This is a,NA,1,trees,susan,bonsai,NA,yes,Please label the pictures below.,25,NA,NA,NA,warmup/sequoia.jpg,trees,graduated_high_school,NA,English,male,NA,trees,NA,2,1566829042026,1,This is a,1,These are both,tree,warmup1,NA
353,NA,redwood,NA,NA,11,warmup/bonsai.jpg,redwood|sequoia,This is a,NA,1,trees,susan,bonsai,NA,yes,Please label the pictures below.,25,NA,NA,NA,warmup/sequoia.jpg,trees,graduated_high_school,NA,English,male,NA,trees,NA,2,1566829042026,2,This is a,1,These are both,bonsai,warmup1,NA
353,NA,pug,NA,NA,11,warmup/great-dane.jpg,pug,This is a,NA,1,dogs,susan,great dane,NA,yes,Please label the pictures below.,25,NA,NA,NA,warmup/pug.jpg,dogs,graduated_high_school,NA,English,male,NA,dogs,NA,3,1566829042026,1,This is a,1,These are both,doober,warmup1,NA
353,NA,pug,NA,NA,11,warmup/great-dane.jpg,pug,This is a,NA,1,dogs,susan,great dane,NA,yes,Please label the pictures below.,25,NA,NA,NA,warmup/pug.jpg,dogs,graduated_high_school,NA,English,male,NA,dogs,NA,3,1566829042026,2,This is a,1,These are both,great dane,warmup1,NA
353,Please rephrase your friend's comment.,NA,It is small relative to other,images/dog-parade-pug.png,11,NA,NA,NA,NA,1,dogs2,susan,NA,1,yes,Your friend points to another member of the group which you cannot see and says: <br/><b>That's a small one.</b>,25,dogs,NA,1,NA,NA,graduated_high_school,small,English,male,NA,NA,You and your friend see the following:,1,1566829042026,NA,NA,1,NA,NA,custom_main_text1,prenominal
353,Please rephrase your friend's comment.,NA,It is big relative to other,images/tree-parade-redwood.png,11,NA,NA,NA,NA,1,trees,susan,NA,1,yes,Your friend points to another member of the group which you cannot see and says: <br/><b>That's a big one.</b>,25,trees,NA,1,NA,NA,graduated_high_school,big,English,male,NA,NA,You and your friend see the following:,2,1566829042026,NA,NA,1,NA,NA,custom_main_text1,prenominal
353,Please rephrase your friend's comment.,NA,It is big relative to other,images/dog-parade-basic.png,11,NA,NA,NA,NA,1,dogs1,susan,NA,0,yes,Your friend points to another member of the group which you cannot see and says: <br/><b>That's a big one.</b>,25,dogs,NA,1,NA,NA,graduated_high_school,big,English,male,NA,NA,You and your friend see the following:,3,1566829042026,NA,NA,1,NA,NA,custom_main_text1,prenominal
353,NA,hammerhead,NA,NA,11,warmup/goldfish.png,swordfish,This is a,NA,1,fish,susan,goldfish,NA,yes,Please label the pictures below.,25,NA,NA,NA,warmup/swordfish.jpg,fish,graduated_high_school,NA,English,male,NA,fish,NA,1,1566829042026,1,This is a,1,These are both,gold fish,warmup2,NA
353,NA,swordfish,NA,NA,11,warmup/goldfish.png,swordfish,This is a,NA,1,fish,susan,goldfish,NA,yes,Please label the pictures below.,25,NA,NA,NA,warmup/swordfish.jpg,fish,graduated_high_school,NA,English,male,NA,fish,NA,1,1566829042026,2,This is a,1,These are both,gold fish,warmup2,NA
353,NA,swordfish,NA,NA,11,warmup/goldfish.png,swordfish,This is a,NA,1,fish,susan,goldfish,NA,yes,Please label the pictures below.,25,NA,NA,NA,warmup/swordfish.jpg,fish,graduated_high_school,NA,English,male,NA,fish,NA,1,1566829042026,3,This is a,1,These are both,goldfish,warmup2,NA
353,NA,daisy,NA,NA,11,warmup/sunflower.png,dandelion,This is a,NA,1,flowers,susan,sunflower,NA,yes,Please label the pictures below.,25,NA,NA,NA,warmup/dandelion.jpg,flowers,graduated_high_school,NA,English,male,NA,flowers,NA,2,1566829042026,1,This is a,1,These are both,sunflower,warmup2,NA
353,NA,dandelion,NA,NA,11,warmup/sunflower.png,dandelion,This is a,NA,1,flowers,susan,sunflower,NA,yes,Please label the pictures below.,25,NA,NA,NA,warmup/dandelion.jpg,flowers,graduated_high_school,NA,English,male,NA,flowers,NA,2,1566829042026,2,This is a,1,These are both,sunflower,warmup2,NA
353,NA,bird,NA,NA,11,warmup/eagle.jpg,hummingbird,This is a,NA,1,birds,susan,eagle,NA,yes,Please label the pictures below.,25,NA,NA,NA,warmup/colibri.jpg,birds,graduated_high_school,NA,English,male,NA,birds,NA,3,1566829042026,1,This is an,1,These are both,eagle,warmup2,NA
353,NA,hummingbird,NA,NA,11,warmup/eagle.jpg,hummingbird,This is a,NA,1,birds,susan,eagle,NA,yes,Please label the pictures below.,25,NA,NA,NA,warmup/colibri.jpg,birds,graduated_high_school,NA,English,male,NA,birds,NA,3,1566829042026,2,This is an,1,These are both,eagle,warmup2,NA
353,Please rephrase your friend's comment.,NA,It is small relative to other,images/flower-parade-basic.png,11,NA,NA,NA,NA,1,flowers,susan,NA,0,yes,Your friend points to another member of the group which you cannot see and says: <br/><b>That's a small dandelion.</b>,25,flowers,NA,0,NA,NA,graduated_high_school,small,English,male,NA,NA,You and your friend see the following:,1,1566829042026,NA,NA,1,NA,NA,custom_main_text2,prenominal
353,Please rephrase your friend's comment.,NA,It is big relative to other,images/bird-parade-basic.png,11,NA,NA,NA,NA,1,birds,susan,NA,0,yes,Your friend points to another member of the group which you cannot see and says: <br/><b> That's a big eagle.</b>,25,birds,NA,0,NA,NA,graduated_high_school,big,English,male,NA,NA,You and your friend see the following:,2,1566829042026,NA,NA,1,NA,NA,custom_main_text2,prenominal
353,Please rephrase your friend's comment.,NA,It is small relative to other,images/fish-parade-goldfish.png,11,NA,NA,NA,NA,1,fish,susan,NA,1,yes,Your friend points to another member of the group which you cannot see and says: <br/><b>That's a small goldfish.</b>,25,fish,NA,0,NA,NA,graduated_high_school,small,English,male,NA,NA,You and your friend see the following:,3,1566829042026,NA,NA,1,NA,NA,custom_main_text2,prenominal
350,NA,pug,NA,NA,11,warmup/great-dane.jpg,pug,This is a,no,2,dogs,Mary,great dane,NA,yes,Please label the pictures below.,30,NA,no,NA,warmup/pug.jpg,dogs,graduated_high_school,NA,english,female,NA,dogs,NA,1,1566828927258,1,This is a,1,These are both,duchhound,warmup1,NA
350,NA,pug,NA,NA,11,warmup/great-dane.jpg,pug,This is a,no,2,dogs,Mary,great dane,NA,yes,Please label the pictures below.,30,NA,no,NA,warmup/pug.jpg,dogs,graduated_high_school,NA,english,female,NA,dogs,NA,1,1566828927258,2,This is a,1,These are both,great dane,warmup1,NA
350,NA,oak,NA,NA,11,warmup/bonsai.jpg,redwood|sequoia,This is a,no,2,trees,Mary,bonsai,NA,yes,Please label the pictures below.,30,NA,no,NA,warmup/sequoia.jpg,trees,graduated_high_school,NA,english,female,NA,trees,NA,2,1566828927258,1,This is a,1,These are both,bonsai,warmup1,NA
350,NA,redwood,NA,NA,11,warmup/bonsai.jpg,redwood|sequoia,This is a,no,2,trees,Mary,bonsai,NA,yes,Please label the pictures below.,30,NA,no,NA,warmup/sequoia.jpg,trees,graduated_high_school,NA,english,female,NA,trees,NA,2,1566828927258,2,This is a,1,These are both,bonsai,warmup1,NA
350,NA,hummingbird,NA,NA,11,warmup/eagle.jpg,hummingbird,This is a,no,2,birds,Mary,eagle,NA,yes,Please label the pictures below.,30,NA,no,NA,warmup/colibri.jpg,bird,graduated_high_school,NA,english,female,NA,birds,NA,3,1566828927258,1,This is an,1,These are both,eagle,warmup1,NA
350,NA,hummingbird,NA,NA,11,warmup/eagle.jpg,hummingbird,This is a,no,2,birds,Mary,eagle,NA,yes,Please label the pictures below.,30,NA,no,NA,warmup/colibri.jpg,birds,graduated_high_school,NA,english,female,NA,birds,NA,3,1566828927258,2,This is an,1,These are both,eagle,warmup1,NA
350,Please rephrase your friend's comment.,NA,It is big relative to other,images/tree-parade-redwood.png,11,NA,NA,NA,no,2,trees,Mary,NA,1,yes,Your friend points to another member of the group which you cannot see and says: <br/><b>That's a big one.</b>,30,trees,no,1,NA,NA,graduated_high_school,big,english,female,NA,NA,You and your friend see the following:,1,1566828927258,NA,NA,1,NA,NA,custom_main_text1,prenominal
350,Please rephrase your friend's comment.,NA,It is small relative to other,images/dog-parade-pug.png,11,NA,NA,NA,no,2,dogs2,Mary,NA,1,yes,Your friend points to another member of the group which you cannot see and says: <br/><b>That's a small pug.</b>,30,pugs,no,0,NA,NA,graduated_high_school,small,english,female,NA,NA,You and your friend see the following:,2,1566828927258,NA,NA,1,NA,NA,custom_main_text1,prenominal
350,Please rephrase your friend's comment.,NA,It is small relative to other,images/bird-parade-basic.png,11,NA,NA,NA,no,2,birds,Mary,NA,0,yes,Your friend points to another member of the group which you cannot see and says: <br/><b> That's a small hummingbird.</b>,30,birds,no,0,NA,NA,graduated_high_school,small,english,female,NA,NA,You and your friend see the following:,3,1566828927258,NA,NA,1,NA,NA,custom_main_text1,prenominal
350,NA,swordfish,NA,NA,11,warmup/goldfish.png,swordfish,This is a,no,2,fish,Mary,goldfish,NA,yes,Please label the pictures below.,30,NA,no,NA,warmup/swordfish.jpg,fish,graduated_high_school,NA,english,female,NA,fish,NA,1,1566828927258,1,This is a,1,These are both,goldfish,warmup2,NA
350,NA,dandilion,NA,NA,11,warmup/sunflower.png,dandelion,This is a,no,2,flowers,Mary,sunflower,NA,yes,Please label the pictures below.,30,NA,no,NA,warmup/dandelion.jpg,flower,graduated_high_school,NA,english,female,NA,flowers,NA,2,1566828927258,1,This is a,1,These are both,sunflower,warmup2,NA
350,NA,dandelion,NA,NA,11,warmup/sunflower.png,dandelion,This is a,no,2,flowers,Mary,sunflower,NA,yes,Please label the pictures below.,30,NA,no,NA,warmup/dandelion.jpg,flowers,graduated_high_school,NA,english,female,NA,flowers,NA,2,1566828927258,2,This is a,1,These are both,sunflower,warmup2,NA
350,NA,chiuhua,NA,NA,11,warmup/doberman.png,chihuahua,This is a,no,2,dogs,Mary,doberman,NA,yes,Please label the pictures below.,30,NA,no,NA,warmup/chihuahua.jpg,dogs,graduated_high_school,NA,english,female,NA,dogs,NA,3,1566828927258,1,This is a,1,These are both,doberman,warmup2,NA
350,NA,chihuahua,NA,NA,11,warmup/doberman.png,chihuahua,This is a,no,2,dogs,Mary,doberman,NA,yes,Please label the pictures below.,30,NA,no,NA,warmup/chihuahua.jpg,dogs,graduated_high_school,NA,english,female,NA,dogs,NA,3,1566828927258,2,This is a,1,These are both,doberman,warmup2,NA
350,Please rephrase your friend's comment.,NA,It is big relative to other,images/dog-parade-basic.png,11,NA,NA,NA,no,2,dogs1,Mary,NA,0,yes,Your friend points to another member of the group which you cannot see and says: <br/><b>That's a big doberman.</b>,30,dogs,no,0,NA,NA,graduated_high_school,big,english,female,NA,NA,You and your friend see the following:,1,1566828927258,NA,NA,1,NA,NA,custom_main_text2,prenominal
350,Please rephrase your friend's comment.,NA,It is big relative to other,images/flower-parade-sunflower.png,11,NA,NA,NA,no,2,flowers,Mary,NA,1,yes,Your friend points to another member of the group which you cannot see and says: <br/><b>That's a big one.</b>,30,flowers,no,1,NA,NA,graduated_high_school,big,english,female,NA,NA,You and your friend see the following:,2,1566828927258,NA,NA,1,NA,NA,custom_main_text2,prenominal
350,Please rephrase your friend's comment.,NA,It is small relative to other,images/fish-parade-basic.png,11,NA,NA,NA,no,2,fish,Mary,NA,0,yes,Your friend points to another member of the group which you cannot see and says: <br/><b>That's a small one.</b>,30,fish,no,1,NA,NA,graduated_high_school,small,english,female,NA,NA,You and your friend see the following:,3,1566828927258,NA,NA,1,NA,NA,custom_main_text2,prenominal
349,NA,Dandelion,NA,NA,11,warmup/sunflower.png,dandelion,This is a,No.,2,flowers,Jessica,sunflower,NA,yes,Please label the pictures below.,31,NA,NA,NA,warmup/dandelion.jpg,Flowers,graduated_college,NA,English,male,NA,flowers,NA,1,1566828884436,1,This is a,1,These are both,Sunflower,warmup1,NA
349,NA,Oak Tree,NA,NA,11,warmup/bonsai.jpg,redwood|sequoia,This is a,No.,2,trees,Jessica,bonsai,NA,yes,Please label the pictures below.,31,NA,NA,NA,warmup/sequoia.jpg,Trees,graduated_college,NA,English,male,NA,trees,NA,2,1566828884436,1,This is a,1,These are both,Bonsai Tree,warmup1,NA
349,NA,Oak,NA,NA,11,warmup/bonsai.jpg,redwood|sequoia,This is a,No.,2,trees,Jessica,bonsai,NA,yes,Please label the pictures below.,31,NA,NA,NA,warmup/sequoia.jpg,Trees,graduated_college,NA,English,male,NA,trees,NA,2,1566828884436,2,This is a,1,These are both,Bonsai,warmup1,NA
349,NA,Oak,NA,NA,11,warmup/bonsai.jpg,redwood|sequoia,This is a,No.,2,trees,Jessica,bonsai,NA,yes,Please label the pictures below.,31,NA,NA,NA,warmup/sequoia.jpg,Trees,graduated_college,NA,English,male,NA,trees,NA,2,1566828884436,3,This is a,1,These are both,Bonsai,warmup1,NA
349,NA,Oak,NA,NA,11,warmup/bonsai.jpg,redwood|sequoia,This is a,No.,2,trees,Jessica,bonsai,NA,yes,Please label the pictures below.,31,NA,NA,NA,warmup/sequoia.jpg,Trees,graduated_college,NA,English,male,NA,trees,NA,2,1566828884436,4,This is a,1,These are both,Bonsai,warmup1,NA
349,NA,Tree,NA,NA,11,warmup/bonsai.jpg,redwood|sequoia,This is a,No.,2,trees,Jessica,bonsai,NA,yes,Please label the pictures below.,31,NA,NA,NA,warmup/sequoia.jpg,Trees,graduated_college,NA,English,male,NA,trees,NA,2,1566828884436,5,This is a,1,These are both,Bonsai,warmup1,NA
349,NA,Redwood,NA,NA,11,warmup/bonsai.jpg,redwood|sequoia,This is a,No.,2,trees,Jessica,bonsai,NA,yes,Please label the pictures below.,31,NA,NA,NA,warmup/sequoia.jpg,Trees,graduated_college,NA,English,male,NA,trees,NA,2,1566828884436,6,This is a,1,These are both,Bonsai,warmup1,NA
349,NA,Hummingbird,NA,NA,11,warmup/eagle.jpg,hummingbird,This is a,No.,2,birds,Jessica,eagle,NA,yes,Please label the pictures below.,31,NA,NA,NA,warmup/colibri.jpg,Birds,graduated_college,NA,English,male,NA,birds,NA,3,1566828884436,1,This is an,1,These are both,Eagle,warmup1,NA
349,Please rephrase your friend's comment.,NA,It is small relative to other,images/tree-parade-basic.png,11,NA,NA,NA,No.,2,trees,Jessica,NA,0,yes,Your friend points to another member of the group which you cannot see and says: <br/><b>That's a small bonsai.</b>,31,trees,NA,0,NA,NA,graduated_college,small,English,male,NA,NA,You and your friend see the following:,1,1566828884436,NA,NA,1,NA,NA,custom_main_text1,prenominal
349,Please rephrase your friend's comment.,NA,It is small relative to other,images/flower-parade-basic.png,11,NA,NA,NA,No.,2,flowers,Jessica,NA,0,yes,Your friend points to another member of the group which you cannot see and says: <br/><b>That's a small one.</b>,31,flowers,NA,1,NA,NA,graduated_college,small,English,male,NA,NA,You and your friend see the following:,2,1566828884436,NA,NA,1,NA,NA,custom_main_text1,prenominal
349,Please rephrase your friend's comment.,NA,It is big relative to other,images/bird-parade-eagle.png,11,NA,NA,NA,No.,2,birds,Jessica,NA,1,yes,Your friend points to another member of the group which you cannot see and says: <br/><b> That's a big eagle.</b>,31,eagles,NA,0,NA,NA,graduated_college,big,English,male,NA,NA,You and your friend see the following:,3,1566828884436,NA,NA,1,NA,NA,custom_main_text1,prenominal
349,NA,Tuna,NA,NA,11,warmup/goldfish.png,swordfish,This is a,No.,2,fish,Jessica,goldfish,NA,yes,Please label the pictures below.,31,NA,NA,NA,warmup/swordfish.jpg,Fish,graduated_college,NA,English,male,NA,fish,NA,1,1566828884436,1,This is a,1,These are both,Goldfish,warmup2,NA
349,NA,Swordfish,NA,NA,11,warmup/goldfish.png,swordfish,This is a,No.,2,fish,Jessica,goldfish,NA,yes,Please label the pictures below.,31,NA,NA,NA,warmup/swordfish.jpg,Fish,graduated_college,NA,English,male,NA,fish,NA,1,1566828884436,2,This is a,1,These are both,Goldfish,warmup2,NA
349,NA,Puppy,NA,NA,11,warmup/doberman.png,chihuahua,This is a,No.,2,dogs,Jessica,doberman,NA,yes,Please label the pictures below.,31,NA,NA,NA,warmup/chihuahua.jpg,Dogs,graduated_college,NA,English,male,NA,dogs,NA,2,1566828884436,1,This is a,1,These are both,Doberman,warmup2,NA
349,NA,Chihuahua,NA,NA,11,warmup/doberman.png,chihuahua,This is a,No.,2,dogs,Jessica,doberman,NA,yes,Please label the pictures below.,31,NA,NA,NA,warmup/chihuahua.jpg,Dogs,graduated_college,NA,English,male,NA,dogs,NA,2,1566828884436,2,This is a,1,These are both,Doberman,warmup2,NA
349,NA,Pug,NA,NA,11,warmup/great-dane.jpg,pug,This is a,No.,2,dogs,Jessica,great dane,NA,yes,Please label the pictures below.,31,NA,NA,NA,warmup/pug.jpg,dogs,graduated_college,NA,English,male,NA,dogs,NA,3,1566828884436,1,This is a,1,These are both,Great Dane,warmup2,NA
349,Please rephrase your friend's comment.,NA,It is big relative to other,images/dog-parade-basic2.png,11,NA,NA,NA,No.,2,dogs2,Jessica,NA,0,yes,Your friend points to another member of the group which you cannot see and says: <br/><b>That's a big great dane.</b>,31,great danes,NA,0,NA,NA,graduated_college,big,English,male,NA,NA,You and your friend see the following:,1,1566828884436,NA,NA,1,NA,NA,custom_main_text2,prenominal
349,Please rephrase your friend's comment.,NA,It is big relative to other,images/fish-parade-swordfish.png,11,NA,NA,NA,No.,2,fish,Jessica,NA,1,yes,Your friend points to another member of the group which you cannot see and says: <br/><b>That's a big one.</b>,31,swordfish,NA,1,NA,NA,graduated_college,big,English,male,NA,NA,You and your friend see the following:,2,1566828884436,NA,NA,1,NA,NA,custom_main_text2,prenominal
349,Please rephrase your friend's comment.,NA,It is small relative to other,images/dog-parade-chihuahua.png,11,NA,NA,NA,No.,2,dogs1,Jessica,NA,1,yes,Your friend points to another member of the group which you cannot see and says: <br/><b>That's a small one.</b>,31,small dogs,NA,1,NA,NA,graduated_college,small,English,male,NA,NA,You and your friend see the following:,3,1566828884436,NA,NA,1,NA,NA,custom_main_text2,prenominal
