submission_id,question,response1,sentence_left,context_picture,pic,experiment_id,picture2,correct1,question1,problems,enjoyment,item,botresponse,trials,correct2,pic_spec,understand,text,condition,sentence,age,response,comments,ref_spec,picture1,response3,education,target_size,name,languages,sex,RT,correct3,context,trial_number,startTime,attempts,question3,fairprice,question2,response2,correct,adj_cond,trial_name,utterance
707,<i>What do you think Speaker A meant? </i>,NA,The Empire State Building is tall relative to other,NA,NA,19,NA,NA,NA,none at all,1,NA,elizabeth,1,NA,NA,yes,NA,NA,"<b> Speaker A: ""The Empire State Building is tall.""</b>",32,buildings,this was fun thanks,NA,NA,NA,some_college,NA,comp_class_warmup,English,female,NA,NA,In the main trials you will be asked to rephrase something a person said. The utterance will contain a word that is <i>relative</i> and your task is to figure out what it is relative to. <br /> <br /> For example: <br /><br />,1,1571855149571,1,NA,1.5,NA,NA,"buildings, skyscrapers, houses, constructions (choose one)",NA,comp_class_warmup,NA
707,NA,small,NA,NA,NA,19,warmup/great-dane.jpg,pug,This is a,none at all,1,dogs,elizabeth,NA,great dane,NA,yes,Please label the pictures below.,NA,NA,32,NA,this was fun thanks,NA,warmup/pug.jpg,dog,some_college,NA,NA,English,female,NA,dogs,NA,1,1571855149571,1,This is a,1.5,These are both,large,NA,NA,warmup1,NA
707,NA,pug,NA,NA,NA,19,warmup/great-dane.jpg,pug,This is a,none at all,1,dogs,elizabeth,NA,great dane,NA,yes,Please label the pictures below.,NA,NA,32,NA,this was fun thanks,NA,warmup/pug.jpg,dogs,some_college,NA,NA,English,female,NA,dogs,NA,1,1571855149571,2,This is a,1.5,These are both,great dane,NA,NA,warmup1,NA
707,NA,sword fish,NA,NA,NA,19,warmup/goldfish.png,swordfish,This is a,none at all,1,fish,elizabeth,NA,goldfish,NA,yes,Please label the pictures below.,NA,NA,32,NA,this was fun thanks,NA,warmup/swordfish.jpg,fish,some_college,NA,NA,English,female,NA,fish,NA,2,1571855149571,1,This is a,1.5,These are both,goldfish,NA,NA,warmup1,NA
707,NA,swordfish,NA,NA,NA,19,warmup/goldfish.png,swordfish,This is a,none at all,1,fish,elizabeth,NA,goldfish,NA,yes,Please label the pictures below.,NA,NA,32,NA,this was fun thanks,NA,warmup/swordfish.jpg,fish,some_college,NA,NA,English,female,NA,fish,NA,2,1571855149571,2,This is a,1.5,These are both,goldfish,NA,NA,warmup1,NA
707,NA,daily,NA,NA,NA,19,warmup/sunflower.png,dandelion,This is a,none at all,1,flowers,elizabeth,NA,sunflower,NA,yes,Please label the pictures below.,NA,NA,32,NA,this was fun thanks,NA,warmup/dandelion.jpg,flower,some_college,NA,NA,English,female,NA,flowers,NA,3,1571855149571,1,This is a,1.5,These are both,sunflower,NA,NA,warmup1,NA
707,NA,dandelion,NA,NA,NA,19,warmup/sunflower.png,dandelion,This is a,none at all,1,flowers,elizabeth,NA,sunflower,NA,yes,Please label the pictures below.,NA,NA,32,NA,this was fun thanks,NA,warmup/dandelion.jpg,flowers,some_college,NA,NA,English,female,NA,flowers,NA,3,1571855149571,2,This is a,1.5,These are both,sunflower,NA,NA,warmup1,NA
707,What do you think your friend meant?,NA,It is big  relative to other,images/dog-parade-basic2.png,images/great-dane.png,19,NA,NA,NA,none at all,1,dogs2,elizabeth,NA,NA,0,yes,"Your friend runs far ahead of you, and you see him in the distance:",prenominal,NA,32,dogs,this was fun thanks,2,NA,NA,some_college,big,NA,English,female,NA,NA,You and your friend see  the following:,1,1571855149571,NA,NA,1.5,NA,NA,NA,basic,custom_main_text1,Your friend says: <br/><b>That's a big one.</b>
707,What do you think your friend meant?,NA,It is small  relative to other,images/fish-parade-goldfish.png,images/goldfish.png,19,NA,NA,NA,none at all,1,fish,elizabeth,NA,NA,1,yes,"Your friend runs far ahead of you, and you see him in the distance:",prenominal,NA,32,fish,this was fun thanks,2,NA,NA,some_college,small,NA,English,female,NA,NA,You and your friend see  the following:,2,1571855149571,NA,NA,1.5,NA,NA,NA,congr,custom_main_text1,Your friend says: <br/><b>That's a small one.</b>
707,What do you think your friend meant?,NA,It is big  relative to other,images/flower-parade-sunflower.png,images/sunflower.png,19,NA,NA,NA,none at all,1,flowers,elizabeth,NA,NA,1,yes,"Your friend runs far ahead of you, and you see him in the distance:",prenominal,NA,32,flowers,this was fun thanks,2,NA,NA,some_college,big,NA,English,female,NA,NA,You and your friend see  the following:,3,1571855149571,NA,NA,1.5,NA,NA,NA,congr,custom_main_text1,Your friend says: <br/><b>That's a big one.</b>
707,NA,hummingbird,NA,NA,NA,19,warmup/eagle.jpg,hummingbird,This is a,none at all,1,birds,elizabeth,NA,eagle,NA,yes,Please label the pictures below.,NA,NA,32,NA,this was fun thanks,NA,warmup/colibri.jpg,birds,some_college,NA,NA,English,female,NA,birds,NA,1,1571855149571,1,This is an,1.5,These are both,eagle,NA,NA,warmup2,NA
707,NA,chiwowa,NA,NA,NA,19,warmup/doberman.png,chihuahua,This is a,none at all,1,dogs,elizabeth,NA,doberman,NA,yes,Please label the pictures below.,NA,NA,32,NA,this was fun thanks,NA,warmup/chihuahua.jpg,dogs,some_college,NA,NA,English,female,NA,dogs,NA,2,1571855149571,1,This is a,1.5,These are both,doberman,NA,NA,warmup2,NA
707,NA,chihuahua,NA,NA,NA,19,warmup/doberman.png,chihuahua,This is a,none at all,1,dogs,elizabeth,NA,doberman,NA,yes,Please label the pictures below.,NA,NA,32,NA,this was fun thanks,NA,warmup/chihuahua.jpg,dogs,some_college,NA,NA,English,female,NA,dogs,NA,2,1571855149571,2,This is a,1.5,These are both,doberman,NA,NA,warmup2,NA
707,NA,oaktree,NA,NA,NA,19,warmup/bonsai.jpg,redwood or sequoia (choose one),This is a,none at all,1,trees,elizabeth,NA,bonsai,NA,yes,Please label the pictures below.,NA,NA,32,NA,this was fun thanks,NA,warmup/sequoia.png,trees,some_college,NA,NA,English,female,NA,trees,NA,3,1571855149571,1,This is a,1.5,These are both,bonzi,NA,NA,warmup2,NA
707,NA,redwood,NA,NA,NA,19,warmup/bonsai.jpg,redwood or sequoia (choose one),This is a,none at all,1,trees,elizabeth,NA,bonsai,NA,yes,Please label the pictures below.,NA,NA,32,NA,this was fun thanks,NA,warmup/sequoia.png,trees,some_college,NA,NA,English,female,NA,trees,NA,3,1571855149571,2,This is a,1.5,These are both,bonsai,NA,NA,warmup2,NA
707,What do you think your friend meant?,NA,It is big  relative to other,images/tree-parade-basic.png,images/redwood.png,19,NA,NA,NA,none at all,1,trees,elizabeth,NA,NA,0,yes,"Your friend runs far ahead of you, and you see him in the distance:",prenominal,NA,32,trees,this was fun thanks,2,NA,NA,some_college,big,NA,English,female,NA,NA,You and your friend see  the following:,1,1571855149571,NA,NA,1.5,NA,NA,NA,basic,custom_main_text2,Your friend says: <br/><b>That's a big one.</b>
707,What do you think your friend meant?,NA,It is small  relative to other,images/bird-parade-basic.png,images/hummingbird.png,19,NA,NA,NA,none at all,1,birds,elizabeth,NA,NA,0,yes,"Your friend runs far ahead of you, and you see him in the distance:",prenominal,NA,32,bird,this was fun thanks,2,NA,NA,some_college,small,NA,English,female,NA,NA,You and your friend see  the following:,2,1571855149571,NA,NA,1.5,NA,NA,NA,basic,custom_main_text2,Your friend says: <br/><b>That's a small one.</b>
707,What do you think your friend meant?,NA,It is small  relative to other,images/dog-parade-chihuahua.png,images/chihuahua.png,19,NA,NA,NA,none at all,1,dogs1,elizabeth,NA,NA,1,yes,"Your friend runs far ahead of you, and you see him in the distance:",prenominal,NA,32,dogs,this was fun thanks,2,NA,NA,some_college,small,NA,English,female,NA,NA,You and your friend see  the following:,3,1571855149571,NA,NA,1.5,NA,NA,NA,congr,custom_main_text2,Your friend says: <br/><b>That's a small one.</b>
698,<i>What do you think Speaker A meant? </i>,NA,The Empire State Building is tall relative to other,NA,NA,19,NA,NA,NA,none,1,NA,mary,1,NA,NA,yes,NA,NA,"<b> Speaker A: ""The Empire State Building is tall.""</b>",46,buildings,none,NA,NA,NA,some_college,NA,comp_class_warmup,English,female,NA,NA,In the main trials you will be asked to rephrase something a person said. The utterance will contain a word that is <i>relative</i> and your task is to figure out what it is relative to. <br /> <br /> For example: <br /><br />,1,1571853072949,1,NA,1,NA,NA,"buildings, skyscrapers, houses, constructions (choose one)",NA,comp_class_warmup,NA
698,NA,dandelion,NA,NA,NA,19,warmup/sunflower.png,dandelion,This is a,none,1,flowers,mary,NA,sunflower,NA,yes,Please label the pictures below.,NA,NA,46,NA,none,NA,warmup/dandelion.jpg,flowers,some_college,NA,NA,English,female,NA,flowers,NA,1,1571853072949,1,This is a,1,These are both,sunflower,NA,NA,warmup1,NA
698,NA,pug,NA,NA,NA,19,warmup/great-dane.jpg,pug,This is a,none,1,dogs,mary,NA,great dane,NA,yes,Please label the pictures below.,NA,NA,46,NA,none,NA,warmup/pug.jpg,dogs,some_college,NA,NA,English,female,NA,dogs,NA,2,1571853072949,1,This is a,1,These are both,great dane,NA,NA,warmup1,NA
698,NA,hummingbird,NA,NA,NA,19,warmup/eagle.jpg,hummingbird,This is a,none,1,birds,mary,NA,eagle,NA,yes,Please label the pictures below.,NA,NA,46,NA,none,NA,warmup/colibri.jpg,birds,some_college,NA,NA,English,female,NA,birds,NA,3,1571853072949,1,This is an,1,These are both,eagle,NA,NA,warmup1,NA
698,What do you think your friend meant?,NA,It is small  relative to other,images/dog-parade-basic2.png,images/pug.png,19,NA,NA,NA,none,1,dogs2,mary,NA,NA,0,yes,"Your friend runs far ahead of you, and you see him in the distance:",prenominal,NA,46,dogs,none,2,NA,NA,some_college,small,NA,English,female,NA,NA,You and your friend see  the following:,1,1571853072949,NA,NA,1,NA,NA,NA,basic,custom_main_text1,Your friend says: <br/><b>That's a small one.</b>
698,What do you think your friend meant?,NA,It is small  relative to other,images/flower-parade-dandelion.png,images/dandelion.png,19,NA,NA,NA,none,1,flowers,mary,NA,NA,1,yes,"Your friend runs far ahead of you, and you see him in the distance:",prenominal,NA,46,flowers,none,2,NA,NA,some_college,small,NA,English,female,NA,NA,You and your friend see  the following:,2,1571853072949,NA,NA,1,NA,NA,NA,congr,custom_main_text1,Your friend says: <br/><b>That's a small one.</b>
698,What do you think your friend meant?,NA,It is big  relative to other,images/bird-parade-eagle.png,images/eagle.png,19,NA,NA,NA,none,1,birds,mary,NA,NA,1,yes,"Your friend runs far ahead of you, and you see him in the distance:",prenominal,NA,46,eagles,none,2,NA,NA,some_college,big,NA,English,female,NA,NA,You and your friend see  the following:,3,1571853072949,NA,NA,1,NA,NA,NA,congr,custom_main_text1,Your friend says: <br/><b>That's a big one.</b>
698,NA,sequoia,NA,NA,NA,19,warmup/bonsai.jpg,redwood or sequoia (choose one),This is a,none,1,trees,mary,NA,bonsai,NA,yes,Please label the pictures below.,NA,NA,46,NA,none,NA,warmup/sequoia.png,trees,some_college,NA,NA,English,female,NA,trees,NA,1,1571853072949,1,This is a,1,These are both,bonsai,NA,NA,warmup2,NA
698,NA,minpin,NA,NA,NA,19,warmup/doberman.png,chihuahua,This is a,none,1,dogs,mary,NA,doberman,NA,yes,Please label the pictures below.,NA,NA,46,NA,none,NA,warmup/chihuahua.jpg,dogs,some_college,NA,NA,English,female,NA,dogs,NA,2,1571853072949,1,This is a,1,These are both,doberman,NA,NA,warmup2,NA
698,NA,chihuahua,NA,NA,NA,19,warmup/doberman.png,chihuahua,This is a,none,1,dogs,mary,NA,doberman,NA,yes,Please label the pictures below.,NA,NA,46,NA,none,NA,warmup/chihuahua.jpg,dogs,some_college,NA,NA,English,female,NA,dogs,NA,2,1571853072949,2,This is a,1,These are both,doberman,NA,NA,warmup2,NA
698,NA,swordfish,NA,NA,NA,19,warmup/goldfish.png,swordfish,This is a,none,1,fish,mary,NA,goldfish,NA,yes,Please label the pictures below.,NA,NA,46,NA,none,NA,warmup/swordfish.jpg,fish,some_college,NA,NA,English,female,NA,fish,NA,3,1571853072949,1,This is a,1,These are both,goldfish,NA,NA,warmup2,NA
698,What do you think your friend meant?,NA,It is big  relative to other,images/fish-parade-basic.png,images/swordfish.png,19,NA,NA,NA,none,1,fish,mary,NA,NA,0,yes,"Your friend runs far ahead of you, and you see him in the distance:",prenominal,NA,46,fish,none,2,NA,NA,some_college,big,NA,English,female,NA,NA,You and your friend see  the following:,1,1571853072949,NA,NA,1,NA,NA,NA,basic,custom_main_text2,Your friend says: <br/><b>That's a big one.</b>
698,What do you think your friend meant?,NA,It is big  relative to other,images/tree-parade-basic.png,images/redwood.png,19,NA,NA,NA,none,1,trees,mary,NA,NA,0,yes,"Your friend runs far ahead of you, and you see him in the distance:",prenominal,NA,46,trees,none,2,NA,NA,some_college,big,NA,English,female,NA,NA,You and your friend see  the following:,2,1571853072949,NA,NA,1,NA,NA,NA,basic,custom_main_text2,Your friend says: <br/><b>That's a big one.</b>
698,What do you think your friend meant?,NA,It is small  relative to other,images/dog-parade-chihuahua.png,images/chihuahua.png,19,NA,NA,NA,none,1,dogs1,mary,NA,NA,1,yes,"Your friend runs far ahead of you, and you see him in the distance:",prenominal,NA,46,chihuahuas,none,2,NA,NA,some_college,small,NA,English,female,NA,NA,You and your friend see  the following:,3,1571853072949,NA,NA,1,NA,NA,NA,congr,custom_main_text2,Your friend says: <br/><b>That's a small one.</b>
696,<i>What do you think Speaker A meant? </i>,NA,The Empire State Building is tall relative to other,NA,NA,19,NA,NA,NA,NO,2,NA,Patricia,1,NA,NA,yes,NA,NA,"<b> Speaker A: ""The Empire State Building is tall.""</b>",25,Buildings,Interesting survey,NA,NA,NA,graduated_college,NA,comp_class_warmup,English,male,NA,NA,In the main trials you will be asked to rephrase something a person said. The utterance will contain a word that is <i>relative</i> and your task is to figure out what it is relative to. <br /> <br /> For example: <br /><br />,1,1571852891995,1,NA,2,NA,NA,"buildings, skyscrapers, houses, constructions (choose one)",NA,comp_class_warmup,NA
696,NA,sdfsdgdfhdfd,NA,NA,NA,19,warmup/eagle.jpg,hummingbird,This is a,NO,2,birds,Patricia,NA,eagle,NA,yes,Please label the pictures below.,NA,NA,25,NA,Interesting survey,NA,warmup/colibri.jpg,birds,graduated_college,NA,NA,English,male,NA,birds,NA,1,1571852891995,1,This is an,2,These are both,gjrfjyfjfhyjgh,NA,NA,warmup1,NA
696,NA,hummingbird,NA,NA,NA,19,warmup/eagle.jpg,hummingbird,This is a,NO,2,birds,Patricia,NA,eagle,NA,yes,Please label the pictures below.,NA,NA,25,NA,Interesting survey,NA,warmup/colibri.jpg,birds,graduated_college,NA,NA,English,male,NA,birds,NA,1,1571852891995,2,This is an,2,These are both,eagle,NA,NA,warmup1,NA
696,NA,ygjut,NA,NA,NA,19,warmup/sunflower.png,dandelion,This is a,NO,2,flowers,Patricia,NA,sunflower,NA,yes,Please label the pictures below.,NA,NA,25,NA,Interesting survey,NA,warmup/dandelion.jpg,flowers,graduated_college,NA,NA,English,male,NA,flowers,NA,2,1571852891995,1,This is a,2,These are both,uhrt,NA,NA,warmup1,NA
696,NA,dandelion,NA,NA,NA,19,warmup/sunflower.png,dandelion,This is a,NO,2,flowers,Patricia,NA,sunflower,NA,yes,Please label the pictures below.,NA,NA,25,NA,Interesting survey,NA,warmup/dandelion.jpg,flowers,graduated_college,NA,NA,English,male,NA,flowers,NA,2,1571852891995,2,This is a,2,These are both,sunflower,NA,NA,warmup1,NA
696,NA,gsdfgsdf,NA,NA,NA,19,warmup/great-dane.jpg,pug,This is a,NO,2,dogs,Patricia,NA,great dane,NA,yes,Please label the pictures below.,NA,NA,25,NA,Interesting survey,NA,warmup/pug.jpg,dogs,graduated_college,NA,NA,English,male,NA,dogs,NA,3,1571852891995,1,This is a,2,These are both,ghdfhfdhdhfd,NA,NA,warmup1,NA
696,NA,pug,NA,NA,NA,19,warmup/great-dane.jpg,pug,This is a,NO,2,dogs,Patricia,NA,great dane,NA,yes,Please label the pictures below.,NA,NA,25,NA,Interesting survey,NA,warmup/pug.jpg,dogs,graduated_college,NA,NA,English,male,NA,dogs,NA,3,1571852891995,2,This is a,2,These are both,great dane,NA,NA,warmup1,NA
696,What do you think your friend meant?,NA,It is small  relative to other,images/flower-parade-basic.png,images/dandelion.png,19,NA,NA,NA,NO,2,flowers,Patricia,NA,NA,0,yes,"Your friend runs far ahead of you, and you see him in the distance:",prenominal,NA,25,dyttrty,Interesting survey,2,NA,NA,graduated_college,small,NA,English,male,NA,NA,You and your friend see  the following:,1,1571852891995,NA,NA,2,NA,NA,NA,basic,custom_main_text1,Your friend says: <br/><b>That's a small one.</b>
696,What do you think your friend meant?,NA,It is big  relative to other,images/bird-parade-basic.png,images/eagle.png,19,NA,NA,NA,NO,2,birds,Patricia,NA,NA,0,yes,"Your friend runs far ahead of you, and you see him in the distance:",prenominal,NA,25,boy,Interesting survey,2,NA,NA,graduated_college,big,NA,English,male,NA,NA,You and your friend see  the following:,2,1571852891995,NA,NA,2,NA,NA,NA,basic,custom_main_text1,Your friend says: <br/><b>That's a big one.</b>
696,What do you think your friend meant?,NA,It is small  relative to other,images/dog-parade-basic2.png,images/pug.png,19,NA,NA,NA,NO,2,dogs2,Patricia,NA,NA,0,yes,"Your friend runs far ahead of you, and you see him in the distance:",prenominal,NA,25,pug,Interesting survey,2,NA,NA,graduated_college,small,NA,English,male,NA,NA,You and your friend see  the following:,3,1571852891995,NA,NA,2,NA,NA,NA,basic,custom_main_text1,Your friend says: <br/><b>That's a small one.</b>
696,NA,ddsgh,NA,NA,NA,19,warmup/doberman.png,chihuahua,This is a,NO,2,dogs,Patricia,NA,doberman,NA,yes,Please label the pictures below.,NA,NA,25,NA,Interesting survey,NA,warmup/chihuahua.jpg,dogs,graduated_college,NA,NA,English,male,NA,dogs,NA,1,1571852891995,1,This is a,2,These are both,hdgfgu,NA,NA,warmup2,NA
696,NA,chihuahua,NA,NA,NA,19,warmup/doberman.png,chihuahua,This is a,NO,2,dogs,Patricia,NA,doberman,NA,yes,Please label the pictures below.,NA,NA,25,NA,Interesting survey,NA,warmup/chihuahua.jpg,dogs,graduated_college,NA,NA,English,male,NA,dogs,NA,1,1571852891995,2,This is a,2,These are both,doberman,NA,NA,warmup2,NA
696,NA,sdfgsf,NA,NA,NA,19,warmup/goldfish.png,swordfish,This is a,NO,2,fish,Patricia,NA,goldfish,NA,yes,Please label the pictures below.,NA,NA,25,NA,Interesting survey,NA,warmup/swordfish.jpg,fish,graduated_college,NA,NA,English,male,NA,fish,NA,2,1571852891995,1,This is a,2,These are both,ghjrgju,NA,NA,warmup2,NA
696,NA,swordfish,NA,NA,NA,19,warmup/goldfish.png,swordfish,This is a,NO,2,fish,Patricia,NA,goldfish,NA,yes,Please label the pictures below.,NA,NA,25,NA,Interesting survey,NA,warmup/swordfish.jpg,fish,graduated_college,NA,NA,English,male,NA,fish,NA,2,1571852891995,2,This is a,2,These are both,goldfish,NA,NA,warmup2,NA
696,NA,fgbhd,NA,NA,NA,19,warmup/bonsai.jpg,redwood or sequoia (choose one),This is a,NO,2,trees,Patricia,NA,bonsai,NA,yes,Please label the pictures below.,NA,NA,25,NA,Interesting survey,NA,warmup/sequoia.png,trees,graduated_college,NA,NA,English,male,NA,trees,NA,3,1571852891995,1,This is a,2,These are both,hdfjf,NA,NA,warmup2,NA
696,NA,redwood,NA,NA,NA,19,warmup/bonsai.jpg,redwood or sequoia (choose one),This is a,NO,2,trees,Patricia,NA,bonsai,NA,yes,Please label the pictures below.,NA,NA,25,NA,Interesting survey,NA,warmup/sequoia.png,trees,graduated_college,NA,NA,English,male,NA,trees,NA,3,1571852891995,2,This is a,2,These are both,bonsai,NA,NA,warmup2,NA
696,What do you think your friend meant?,NA,It is big  relative to other,images/dog-parade-doberman.png,images/doberman.png,19,NA,NA,NA,NO,2,dogs1,Patricia,NA,NA,1,yes,"Your friend runs far ahead of you, and you see him in the distance:",prenominal,NA,25,boy,Interesting survey,2,NA,NA,graduated_college,big,NA,English,male,NA,NA,You and your friend see  the following:,1,1571852891995,NA,NA,2,NA,NA,NA,congr,custom_main_text2,Your friend says: <br/><b>That's a big one.</b>
696,What do you think your friend meant?,NA,It is small  relative to other,images/fish-parade-goldfish.png,images/goldfish.png,19,NA,NA,NA,NO,2,fish,Patricia,NA,NA,1,yes,"Your friend runs far ahead of you, and you see him in the distance:",prenominal,NA,25,golden fish,Interesting survey,2,NA,NA,graduated_college,small,NA,English,male,NA,NA,You and your friend see  the following:,2,1571852891995,NA,NA,2,NA,NA,NA,congr,custom_main_text2,Your friend says: <br/><b>That's a small one.</b>
696,What do you think your friend meant?,NA,It is big  relative to other,images/tree-parade-redwood.png,images/redwood.png,19,NA,NA,NA,NO,2,trees,Patricia,NA,NA,1,yes,"Your friend runs far ahead of you, and you see him in the distance:",prenominal,NA,25,tree,Interesting survey,2,NA,NA,graduated_college,big,NA,English,male,NA,NA,You and your friend see  the following:,3,1571852891995,NA,NA,2,NA,NA,NA,congr,custom_main_text2,Your friend says: <br/><b>That's a big one.</b>
689,<i>What do you think Speaker A meant? </i>,NA,The Empire State Building is tall relative to other,NA,NA,19,NA,NA,NA,None,2,NA,susan,1,NA,NA,yes,NA,NA,"<b> Speaker A: ""The Empire State Building is tall.""</b>",32,buildings.,None,NA,NA,NA,some_college,NA,comp_class_warmup,English,male,NA,NA,In the main trials you will be asked to rephrase something a person said. The utterance will contain a word that is <i>relative</i> and your task is to figure out what it is relative to. <br /> <br /> For example: <br /><br />,1,1571852468598,1,NA,1,NA,NA,"buildings, skyscrapers, houses, constructions (choose one)",NA,comp_class_warmup,NA
689,<i>What do you think Speaker A meant? </i>,NA,The Empire State Building is tall relative to other,NA,NA,19,NA,NA,NA,None,2,NA,susan,1,NA,NA,yes,NA,NA,"<b> Speaker A: ""The Empire State Building is tall.""</b>",32,buildings,None,NA,NA,NA,some_college,NA,comp_class_warmup,English,male,NA,NA,In the main trials you will be asked to rephrase something a person said. The utterance will contain a word that is <i>relative</i> and your task is to figure out what it is relative to. <br /> <br /> For example: <br /><br />,1,1571852468598,2,NA,1,NA,NA,"buildings, skyscrapers, houses, constructions (choose one)",NA,comp_class_warmup,NA
689,NA,chihuahua,NA,NA,NA,19,warmup/doberman.png,chihuahua,This is a,None,2,dogs,susan,NA,doberman,NA,yes,Please label the pictures below.,NA,NA,32,NA,None,NA,warmup/chihuahua.jpg,dogs,some_college,NA,NA,English,male,NA,dogs,NA,1,1571852468598,1,This is a,1,These are both,doberman,NA,NA,warmup1,NA
689,NA,dandelion,NA,NA,NA,19,warmup/sunflower.png,dandelion,This is a,None,2,flowers,susan,NA,sunflower,NA,yes,Please label the pictures below.,NA,NA,32,NA,None,NA,warmup/dandelion.jpg,flowers,some_college,NA,NA,English,male,NA,flowers,NA,2,1571852468598,1,This is a,1,These are both,sunflower,NA,NA,warmup1,NA
689,NA,redwood,NA,NA,NA,19,warmup/bonsai.jpg,redwood or sequoia (choose one),This is a,None,2,trees,susan,NA,bonsai,NA,yes,Please label the pictures below.,NA,NA,32,NA,None,NA,warmup/sequoia.png,trees,some_college,NA,NA,English,male,NA,trees,NA,3,1571852468598,1,This is a,1,These are both,bonsai,NA,NA,warmup1,NA
689,What do you think your friend meant?,NA,It is big  relative to other,images/dog-parade-doberman.png,images/doberman.png,19,NA,NA,NA,None,2,dogs1,susan,NA,NA,1,yes,"Your friend runs far ahead of you, and you see him in the distance:",prenominal,NA,32,dogs,None,2,NA,NA,some_college,big,NA,English,male,NA,NA,You and your friend see  the following:,1,1571852468598,NA,NA,1,NA,NA,NA,congr,custom_main_text1,Your friend says: <br/><b>That's a big one.</b>
689,What do you think your friend meant?,NA,It is small  relative to other,images/tree-parade-bonsai.png,images/bonsai.png,19,NA,NA,NA,None,2,trees,susan,NA,NA,1,yes,"Your friend runs far ahead of you, and you see him in the distance:",prenominal,NA,32,bonsai,None,2,NA,NA,some_college,small,NA,English,male,NA,NA,You and your friend see  the following:,2,1571852468598,NA,NA,1,NA,NA,NA,congr,custom_main_text1,Your friend says: <br/><b>That's a small one.</b>
689,What do you think your friend meant?,NA,It is big  relative to other,images/flower-parade-sunflower.png,images/sunflower.png,19,NA,NA,NA,None,2,flowers,susan,NA,NA,1,yes,"Your friend runs far ahead of you, and you see him in the distance:",prenominal,NA,32,flowers,None,2,NA,NA,some_college,big,NA,English,male,NA,NA,You and your friend see  the following:,3,1571852468598,NA,NA,1,NA,NA,NA,congr,custom_main_text1,Your friend says: <br/><b>That's a big one.</b>
689,NA,hummingbird,NA,NA,NA,19,warmup/eagle.jpg,hummingbird,This is a,None,2,birds,susan,NA,eagle,NA,yes,Please label the pictures below.,NA,NA,32,NA,None,NA,warmup/colibri.jpg,birds,some_college,NA,NA,English,male,NA,birds,NA,1,1571852468598,1,This is an,1,These are both,eagle,NA,NA,warmup2,NA
689,NA,pug,NA,NA,NA,19,warmup/great-dane.jpg,pug,This is a,None,2,dogs,susan,NA,great dane,NA,yes,Please label the pictures below.,NA,NA,32,NA,None,NA,warmup/pug.jpg,dogs,some_college,NA,NA,English,male,NA,dogs,NA,2,1571852468598,1,This is a,1,These are both,great dane,NA,NA,warmup2,NA
689,NA,marlin,NA,NA,NA,19,warmup/goldfish.png,swordfish,This is a,None,2,fish,susan,NA,goldfish,NA,yes,Please label the pictures below.,NA,NA,32,NA,None,NA,warmup/swordfish.jpg,fish,some_college,NA,NA,English,male,NA,fish,NA,3,1571852468598,1,This is a,1,These are both,goldfish,NA,NA,warmup2,NA
689,NA,swordfish,NA,NA,NA,19,warmup/goldfish.png,swordfish,This is a,None,2,fish,susan,NA,goldfish,NA,yes,Please label the pictures below.,NA,NA,32,NA,None,NA,warmup/swordfish.jpg,fish,some_college,NA,NA,English,male,NA,fish,NA,3,1571852468598,2,This is a,1,These are both,goldfish,NA,NA,warmup2,NA
689,What do you think your friend meant?,NA,It is small  relative to other,images/fish-parade-basic.png,images/goldfish.png,19,NA,NA,NA,None,2,fish,susan,NA,NA,0,yes,"Your friend runs far ahead of you, and you see him in the distance:",prenominal,NA,32,fish,None,2,NA,NA,some_college,small,NA,English,male,NA,NA,You and your friend see  the following:,1,1571852468598,NA,NA,1,NA,NA,NA,basic,custom_main_text2,Your friend says: <br/><b>That's a small one.</b>
689,What do you think your friend meant?,NA,It is small  relative to other,images/dog-parade-basic2.png,images/pug.png,19,NA,NA,NA,None,2,dogs2,susan,NA,NA,0,yes,"Your friend runs far ahead of you, and you see him in the distance:",prenominal,NA,32,dogs,None,2,NA,NA,some_college,small,NA,English,male,NA,NA,You and your friend see  the following:,2,1571852468598,NA,NA,1,NA,NA,NA,basic,custom_main_text2,Your friend says: <br/><b>That's a small one.</b>
689,What do you think your friend meant?,NA,It is big  relative to other,images/bird-parade-basic.png,images/eagle.png,19,NA,NA,NA,None,2,birds,susan,NA,NA,0,yes,"Your friend runs far ahead of you, and you see him in the distance:",prenominal,NA,32,birds,None,2,NA,NA,some_college,big,NA,English,male,NA,NA,You and your friend see  the following:,3,1571852468598,NA,NA,1,NA,NA,NA,basic,custom_main_text2,Your friend says: <br/><b>That's a big one.</b>
681,<i>What do you think Speaker A meant? </i>,NA,The Empire State Building is tall relative to other,NA,NA,19,NA,NA,NA,"No, it worked great.",2,NA,linda,1,NA,NA,yes,NA,NA,"<b> Speaker A: ""The Empire State Building is tall.""</b>",37,buildings,Thank you!,NA,NA,NA,graduated_college,NA,comp_class_warmup,English,male,NA,NA,In the main trials you will be asked to rephrase something a person said. The utterance will contain a word that is <i>relative</i> and your task is to figure out what it is relative to. <br /> <br /> For example: <br /><br />,1,1571852023931,1,NA,1,NA,NA,"buildings, skyscrapers, houses, constructions (choose one)",NA,comp_class_warmup,NA
681,NA,swordfish,NA,NA,NA,19,warmup/goldfish.png,swordfish,This is a,"No, it worked great.",2,fish,linda,NA,goldfish,NA,yes,Please label the pictures below.,NA,NA,37,NA,Thank you!,NA,warmup/swordfish.jpg,fish,graduated_college,NA,NA,English,male,NA,fish,NA,1,1571852023931,1,This is a,1,These are both,goldfish,NA,NA,warmup1,NA
681,NA,pug,NA,NA,NA,19,warmup/great-dane.jpg,pug,This is a,"No, it worked great.",2,dogs,linda,NA,great dane,NA,yes,Please label the pictures below.,NA,NA,37,NA,Thank you!,NA,warmup/pug.jpg,dogs,graduated_college,NA,NA,English,male,NA,dogs,NA,2,1571852023931,1,This is a,1,These are both,great dane,NA,NA,warmup1,NA
681,NA,weed,NA,NA,NA,19,warmup/sunflower.png,dandelion,This is a,"No, it worked great.",2,flowers,linda,NA,sunflower,NA,yes,Please label the pictures below.,NA,NA,37,NA,Thank you!,NA,warmup/dandelion.jpg,flowers,graduated_college,NA,NA,English,male,NA,flowers,NA,3,1571852023931,1,This is a,1,These are both,sunflower,NA,NA,warmup1,NA
681,NA,dandelion,NA,NA,NA,19,warmup/sunflower.png,dandelion,This is a,"No, it worked great.",2,flowers,linda,NA,sunflower,NA,yes,Please label the pictures below.,NA,NA,37,NA,Thank you!,NA,warmup/dandelion.jpg,flowers,graduated_college,NA,NA,English,male,NA,flowers,NA,3,1571852023931,2,This is a,1,These are both,sunflower,NA,NA,warmup1,NA
681,What do you think your friend meant?,NA,It is big  relative to other,images/dog-parade-basic2.png,images/great-dane.png,19,NA,NA,NA,"No, it worked great.",2,dogs2,linda,NA,NA,0,yes,"Your friend runs far ahead of you, and you see him in the distance:",prenominal,NA,37,dogs,Thank you!,2,NA,NA,graduated_college,big,NA,English,male,NA,NA,You and your friend see  the following:,1,1571852023931,NA,NA,1,NA,NA,NA,basic,custom_main_text1,Your friend says: <br/><b>That's a big one.</b>
681,What do you think your friend meant?,NA,It is small  relative to other,images/fish-parade-goldfish.png,images/goldfish.png,19,NA,NA,NA,"No, it worked great.",2,fish,linda,NA,NA,1,yes,"Your friend runs far ahead of you, and you see him in the distance:",prenominal,NA,37,fish,Thank you!,2,NA,NA,graduated_college,small,NA,English,male,NA,NA,You and your friend see  the following:,2,1571852023931,NA,NA,1,NA,NA,NA,congr,custom_main_text1,Your friend says: <br/><b>That's a small one.</b>
681,What do you think your friend meant?,NA,It is big  relative to other,images/flower-parade-basic.png,images/sunflower.png,19,NA,NA,NA,"No, it worked great.",2,flowers,linda,NA,NA,0,yes,"Your friend runs far ahead of you, and you see him in the distance:",prenominal,NA,37,flowers,Thank you!,2,NA,NA,graduated_college,big,NA,English,male,NA,NA,You and your friend see  the following:,3,1571852023931,NA,NA,1,NA,NA,NA,basic,custom_main_text1,Your friend says: <br/><b>That's a big one.</b>
681,NA,tree,NA,NA,NA,19,warmup/bonsai.jpg,redwood or sequoia (choose one),This is a,"No, it worked great.",2,trees,linda,NA,bonsai,NA,yes,Please label the pictures below.,NA,NA,37,NA,Thank you!,NA,warmup/sequoia.png,trees,graduated_college,NA,NA,English,male,NA,trees,NA,1,1571852023931,1,This is a,1,These are both,bonsai,NA,NA,warmup2,NA
681,NA,redwood,NA,NA,NA,19,warmup/bonsai.jpg,redwood or sequoia (choose one),This is a,"No, it worked great.",2,trees,linda,NA,bonsai,NA,yes,Please label the pictures below.,NA,NA,37,NA,Thank you!,NA,warmup/sequoia.png,trees,graduated_college,NA,NA,English,male,NA,trees,NA,1,1571852023931,2,This is a,1,These are both,bonsai,NA,NA,warmup2,NA
681,NA,hummingbird,NA,NA,NA,19,warmup/eagle.jpg,hummingbird,This is a,"No, it worked great.",2,birds,linda,NA,eagle,NA,yes,Please label the pictures below.,NA,NA,37,NA,Thank you!,NA,warmup/colibri.jpg,birds,graduated_college,NA,NA,English,male,NA,birds,NA,2,1571852023931,1,This is an,1,These are both,eagle,NA,NA,warmup2,NA
681,NA,chihuahua,NA,NA,NA,19,warmup/doberman.png,chihuahua,This is a,"No, it worked great.",2,dogs,linda,NA,doberman,NA,yes,Please label the pictures below.,NA,NA,37,NA,Thank you!,NA,warmup/chihuahua.jpg,dogs,graduated_college,NA,NA,English,male,NA,dogs,NA,3,1571852023931,1,This is a,1,These are both,doberman,NA,NA,warmup2,NA
681,What do you think your friend meant?,NA,It is big  relative to other,images/bird-parade-eagle.png,images/eagle.png,19,NA,NA,NA,"No, it worked great.",2,birds,linda,NA,NA,1,yes,"Your friend runs far ahead of you, and you see him in the distance:",prenominal,NA,37,eagles,Thank you!,2,NA,NA,graduated_college,big,NA,English,male,NA,NA,You and your friend see  the following:,1,1571852023931,NA,NA,1,NA,NA,NA,congr,custom_main_text2,Your friend says: <br/><b>That's a big one.</b>
681,What do you think your friend meant?,NA,It is small  relative to other,images/tree-parade-basic.png,images/bonsai.png,19,NA,NA,NA,"No, it worked great.",2,trees,linda,NA,NA,0,yes,"Your friend runs far ahead of you, and you see him in the distance:",prenominal,NA,37,trees,Thank you!,2,NA,NA,graduated_college,small,NA,English,male,NA,NA,You and your friend see  the following:,2,1571852023931,NA,NA,1,NA,NA,NA,basic,custom_main_text2,Your friend says: <br/><b>That's a small one.</b>
681,What do you think your friend meant?,NA,It is small  relative to other,images/dog-parade-chihuahua.png,images/chihuahua.png,19,NA,NA,NA,"No, it worked great.",2,dogs1,linda,NA,NA,1,yes,"Your friend runs far ahead of you, and you see him in the distance:",prenominal,NA,37,chihuahuas,Thank you!,2,NA,NA,graduated_college,small,NA,English,male,NA,NA,You and your friend see  the following:,3,1571852023931,NA,NA,1,NA,NA,NA,congr,custom_main_text2,Your friend says: <br/><b>That's a small one.</b>
675,<i>What do you think Speaker A meant? </i>,NA,The Empire State Building is tall relative to other,NA,NA,19,NA,NA,NA,NA,NA,NA,Susan,1,NA,NA,NA,NA,NA,"<b> Speaker A: ""The Empire State Building is tall.""</b>",NA,buildings,NA,NA,NA,NA,NA,NA,comp_class_warmup,NA,NA,NA,NA,In the main trials you will be asked to rephrase something a person said. The utterance will contain a word that is <i>relative</i> and your task is to figure out what it is relative to. <br /> <br /> For example: <br /><br />,1,1571851925262,1,NA,NA,NA,NA,"buildings, skyscrapers, houses, constructions (choose one)",NA,comp_class_warmup,NA
675,NA,swordfish,NA,NA,NA,19,warmup/goldfish.png,swordfish,This is a,NA,NA,fish,Susan,NA,goldfish,NA,NA,Please label the pictures below.,NA,NA,NA,NA,NA,NA,warmup/swordfish.jpg,fish,NA,NA,NA,NA,NA,NA,fish,NA,1,1571851925262,1,This is a,NA,These are both,goldfish,NA,NA,warmup1,NA
675,NA,dandelion,NA,NA,NA,19,warmup/sunflower.png,dandelion,This is a,NA,NA,flowers,Susan,NA,sunflower,NA,NA,Please label the pictures below.,NA,NA,NA,NA,NA,NA,warmup/dandelion.jpg,flowers,NA,NA,NA,NA,NA,NA,flowers,NA,2,1571851925262,1,This is a,NA,These are both,sunflower,NA,NA,warmup1,NA
675,NA,redwood,NA,NA,NA,19,warmup/bonsai.jpg,redwood or sequoia (choose one),This is a,NA,NA,trees,Susan,NA,bonsai,NA,NA,Please label the pictures below.,NA,NA,NA,NA,NA,NA,warmup/sequoia.png,trees,NA,NA,NA,NA,NA,NA,trees,NA,3,1571851925262,1,This is a,NA,These are both,bonsai,NA,NA,warmup1,NA
675,What do you think your friend meant?,NA,It is big  relative to other,images/tree-parade-basic.png,images/redwood.png,19,NA,NA,NA,NA,NA,trees,Susan,NA,NA,0,NA,"Your friend runs far ahead of you, and you see him in the distance:",prenominal,NA,NA,trees,NA,2,NA,NA,NA,big,NA,NA,NA,NA,NA,You and your friend see  the following:,1,1571851925262,NA,NA,NA,NA,NA,NA,basic,custom_main_text1,Your friend says: <br/><b>That's a big one.</b>
675,What do you think your friend meant?,NA,It is small  relative to other,images/flower-parade-dandelion.png,images/dandelion.png,19,NA,NA,NA,NA,NA,flowers,Susan,NA,NA,1,NA,"Your friend runs far ahead of you, and you see him in the distance:",prenominal,NA,NA,flowers,NA,2,NA,NA,NA,small,NA,NA,NA,NA,NA,You and your friend see  the following:,2,1571851925262,NA,NA,NA,NA,NA,NA,congr,custom_main_text1,Your friend says: <br/><b>That's a small one.</b>
675,What do you think your friend meant?,NA,It is big  relative to other,images/fish-parade-basic.png,images/swordfish.png,19,NA,NA,NA,NA,NA,fish,Susan,NA,NA,0,NA,"Your friend runs far ahead of you, and you see him in the distance:",prenominal,NA,NA,fish,NA,2,NA,NA,NA,big,NA,NA,NA,NA,NA,You and your friend see  the following:,3,1571851925262,NA,NA,NA,NA,NA,NA,basic,custom_main_text1,Your friend says: <br/><b>That's a big one.</b>
675,NA,chiucua,NA,NA,NA,19,warmup/doberman.png,chihuahua,This is a,NA,NA,dogs,Susan,NA,doberman,NA,NA,Please label the pictures below.,NA,NA,NA,NA,NA,NA,warmup/chihuahua.jpg,dogs,NA,NA,NA,NA,NA,NA,dogs,NA,1,1571851925262,1,This is a,NA,These are both,great dane,NA,NA,warmup2,NA
675,NA,chihuahua,NA,NA,NA,19,warmup/doberman.png,chihuahua,This is a,NA,NA,dogs,Susan,NA,doberman,NA,NA,Please label the pictures below.,NA,NA,NA,NA,NA,NA,warmup/chihuahua.jpg,dogs,NA,NA,NA,NA,NA,NA,dogs,NA,1,1571851925262,2,This is a,NA,These are both,doberman,NA,NA,warmup2,NA
675,NA,pug,NA,NA,NA,19,warmup/great-dane.jpg,pug,This is a,NA,NA,dogs,Susan,NA,great dane,NA,NA,Please label the pictures below.,NA,NA,NA,NA,NA,NA,warmup/pug.jpg,dogs,NA,NA,NA,NA,NA,NA,dogs,NA,2,1571851925262,1,This is a,NA,These are both,great dane,NA,NA,warmup2,NA
675,NA,hummingbird,NA,NA,NA,19,warmup/eagle.jpg,hummingbird,This is a,NA,NA,birds,Susan,NA,eagle,NA,NA,Please label the pictures below.,NA,NA,NA,NA,NA,NA,warmup/colibri.jpg,birds,NA,NA,NA,NA,NA,NA,birds,NA,3,1571851925262,1,This is an,NA,These are both,eagle,NA,NA,warmup2,NA
675,What do you think your friend meant?,NA,It is big  relative to other,images/dog-parade-doberman.png,images/doberman.png,19,NA,NA,NA,NA,NA,dogs1,Susan,NA,NA,1,NA,"Your friend runs far ahead of you, and you see him in the distance:",prenominal,NA,NA,dogs,NA,2,NA,NA,NA,big,NA,NA,NA,NA,NA,You and your friend see  the following:,1,1571851925262,NA,NA,NA,NA,NA,NA,congr,custom_main_text2,Your friend says: <br/><b>That's a big one.</b>
675,What do you think your friend meant?,NA,It is small  relative to other,images/bird-parade-basic.png,images/hummingbird.png,19,NA,NA,NA,NA,NA,birds,Susan,NA,NA,0,NA,"Your friend runs far ahead of you, and you see him in the distance:",prenominal,NA,NA,birds,NA,2,NA,NA,NA,small,NA,NA,NA,NA,NA,You and your friend see  the following:,2,1571851925262,NA,NA,NA,NA,NA,NA,basic,custom_main_text2,Your friend says: <br/><b>That's a small one.</b>
675,What do you think your friend meant?,NA,It is small  relative to other,images/dog-parade-pug.png,images/pug.png,19,NA,NA,NA,NA,NA,dogs2,Susan,NA,NA,1,NA,"Your friend runs far ahead of you, and you see him in the distance:",prenominal,NA,NA,dogs,NA,2,NA,NA,NA,small,NA,NA,NA,NA,NA,You and your friend see  the following:,3,1571851925262,NA,NA,NA,NA,NA,NA,congr,custom_main_text2,Your friend says: <br/><b>That's a small one.</b>
669,<i>What do you think Speaker A meant? </i>,NA,The Empire State Building is tall relative to other,NA,NA,19,NA,NA,NA,NA,NA,NA,Jessica,1,NA,NA,NA,NA,NA,"<b> Speaker A: ""The Empire State Building is tall.""</b>",NA,buildings,NA,NA,NA,NA,NA,NA,comp_class_warmup,NA,NA,NA,NA,In the main trials you will be asked to rephrase something a person said. The utterance will contain a word that is <i>relative</i> and your task is to figure out what it is relative to. <br /> <br /> For example: <br /><br />,1,1571851754829,1,NA,NA,NA,NA,"buildings, skyscrapers, houses, constructions (choose one)",NA,comp_class_warmup,NA
669,NA,swordfish,NA,NA,NA,19,warmup/goldfish.png,swordfish,This is a,NA,NA,fish,Jessica,NA,goldfish,NA,NA,Please label the pictures below.,NA,NA,NA,NA,NA,NA,warmup/swordfish.jpg,fish,NA,NA,NA,NA,NA,NA,fish,NA,1,1571851754829,1,This is a,NA,These are both,goldfish,NA,NA,warmup1,NA
669,NA,hummingbird,NA,NA,NA,19,warmup/eagle.jpg,hummingbird,This is a,NA,NA,birds,Jessica,NA,eagle,NA,NA,Please label the pictures below.,NA,NA,NA,NA,NA,NA,warmup/colibri.jpg,birds,NA,NA,NA,NA,NA,NA,birds,NA,2,1571851754829,1,This is an,NA,These are both,eagle,NA,NA,warmup1,NA
669,NA,danelion,NA,NA,NA,19,warmup/sunflower.png,dandelion,This is a,NA,NA,flowers,Jessica,NA,sunflower,NA,NA,Please label the pictures below.,NA,NA,NA,NA,NA,NA,warmup/dandelion.jpg,flowers,NA,NA,NA,NA,NA,NA,flowers,NA,3,1571851754829,1,This is a,NA,These are both,sunflower,NA,NA,warmup1,NA
669,NA,dandelion,NA,NA,NA,19,warmup/sunflower.png,dandelion,This is a,NA,NA,flowers,Jessica,NA,sunflower,NA,NA,Please label the pictures below.,NA,NA,NA,NA,NA,NA,warmup/dandelion.jpg,flowers,NA,NA,NA,NA,NA,NA,flowers,NA,3,1571851754829,2,This is a,NA,These are both,sunflower,NA,NA,warmup1,NA
669,What do you think your friend meant?,NA,It is small  relative to other,images/fish-parade-basic.png,images/goldfish.png,19,NA,NA,NA,NA,NA,fish,Jessica,NA,NA,0,NA,"Your friend runs far ahead of you, and you see him in the distance:",prenominal,NA,NA,fish,NA,2,NA,NA,NA,small,NA,NA,NA,NA,NA,You and your friend see  the following:,1,1571851754829,NA,NA,NA,NA,NA,NA,basic,custom_main_text1,Your friend says: <br/><b>That's a small one.</b>
669,What do you think your friend meant?,NA,It is big  relative to other,images/flower-parade-basic.png,images/sunflower.png,19,NA,NA,NA,NA,NA,flowers,Jessica,NA,NA,0,NA,"Your friend runs far ahead of you, and you see him in the distance:",prenominal,NA,NA,flowers,NA,2,NA,NA,NA,big,NA,NA,NA,NA,NA,You and your friend see  the following:,2,1571851754829,NA,NA,NA,NA,NA,NA,basic,custom_main_text1,Your friend says: <br/><b>That's a big one.</b>
669,What do you think your friend meant?,NA,It is small  relative to other,images/bird-parade-hummingbird.png,images/hummingbird.png,19,NA,NA,NA,NA,NA,birds,Jessica,NA,NA,1,NA,"Your friend runs far ahead of you, and you see him in the distance:",prenominal,NA,NA,birds,NA,2,NA,NA,NA,small,NA,NA,NA,NA,NA,You and your friend see  the following:,3,1571851754829,NA,NA,NA,NA,NA,NA,congr,custom_main_text1,Your friend says: <br/><b>That's a small one.</b>
669,NA,pug,NA,NA,NA,19,warmup/great-dane.jpg,pug,This is a,NA,NA,dogs,Jessica,NA,great dane,NA,NA,Please label the pictures below.,NA,NA,NA,NA,NA,NA,warmup/pug.jpg,dogs,NA,NA,NA,NA,NA,NA,dogs,NA,1,1571851754829,1,This is a,NA,These are both,dog,NA,NA,warmup2,NA
669,NA,pug,NA,NA,NA,19,warmup/great-dane.jpg,pug,This is a,NA,NA,dogs,Jessica,NA,great dane,NA,NA,Please label the pictures below.,NA,NA,NA,NA,NA,NA,warmup/pug.jpg,dogs,NA,NA,NA,NA,NA,NA,dogs,NA,1,1571851754829,2,This is a,NA,These are both,great dane,NA,NA,warmup2,NA
669,NA,dog,NA,NA,NA,19,warmup/doberman.png,chihuahua,This is a,NA,NA,dogs,Jessica,NA,doberman,NA,NA,Please label the pictures below.,NA,NA,NA,NA,NA,NA,warmup/chihuahua.jpg,dogs,NA,NA,NA,NA,NA,NA,dogs,NA,2,1571851754829,1,This is a,NA,These are both,dog,NA,NA,warmup2,NA
669,NA,chihuahua,NA,NA,NA,19,warmup/doberman.png,chihuahua,This is a,NA,NA,dogs,Jessica,NA,doberman,NA,NA,Please label the pictures below.,NA,NA,NA,NA,NA,NA,warmup/chihuahua.jpg,dogs,NA,NA,NA,NA,NA,NA,dogs,NA,2,1571851754829,2,This is a,NA,These are both,doberman,NA,NA,warmup2,NA
669,NA,redwood,NA,NA,NA,19,warmup/bonsai.jpg,redwood or sequoia (choose one),This is a,NA,NA,trees,Jessica,NA,bonsai,NA,NA,Please label the pictures below.,NA,NA,NA,NA,NA,NA,warmup/sequoia.png,trees,NA,NA,NA,NA,NA,NA,trees,NA,3,1571851754829,1,This is a,NA,These are both,bonsai,NA,NA,warmup2,NA
669,What do you think your friend meant?,NA,It is big  relative to other,images/dog-parade-great-dane.png,images/great-dane.png,19,NA,NA,NA,NA,NA,dogs2,Jessica,NA,NA,1,NA,"Your friend runs far ahead of you, and you see him in the distance:",prenominal,NA,NA,dogs,NA,2,NA,NA,NA,big,NA,NA,NA,NA,NA,You and your friend see  the following:,1,1571851754829,NA,NA,NA,NA,NA,NA,congr,custom_main_text2,Your friend says: <br/><b>That's a big one.</b>
669,What do you think your friend meant?,NA,It is small  relative to other,images/dog-parade-chihuahua.png,images/chihuahua.png,19,NA,NA,NA,NA,NA,dogs1,Jessica,NA,NA,1,NA,"Your friend runs far ahead of you, and you see him in the distance:",prenominal,NA,NA,dogs,NA,2,NA,NA,NA,small,NA,NA,NA,NA,NA,You and your friend see  the following:,2,1571851754829,NA,NA,NA,NA,NA,NA,congr,custom_main_text2,Your friend says: <br/><b>That's a small one.</b>
669,What do you think your friend meant?,NA,It is big  relative to other,images/tree-parade-basic.png,images/redwood.png,19,NA,NA,NA,NA,NA,trees,Jessica,NA,NA,0,NA,"Your friend runs far ahead of you, and you see him in the distance:",prenominal,NA,NA,trees,NA,2,NA,NA,NA,big,NA,NA,NA,NA,NA,You and your friend see  the following:,3,1571851754829,NA,NA,NA,NA,NA,NA,basic,custom_main_text2,Your friend says: <br/><b>That's a big one.</b>
668,<i>What do you think Speaker A meant? </i>,NA,The Empire State Building is tall relative to other,NA,NA,19,NA,NA,NA,Yes I had to use firefox. Chrome wouldn't work. It wouldn't let me press next,1,NA,Jennifer,1,NA,NA,yes,NA,NA,"<b> Speaker A: ""The Empire State Building is tall.""</b>",24,buildings,Thanks,NA,NA,NA,some_college,NA,comp_class_warmup,English,male,NA,NA,In the main trials you will be asked to rephrase something a person said. The utterance will contain a word that is <i>relative</i> and your task is to figure out what it is relative to. <br /> <br /> For example: <br /><br />,1,1571851612073,1,NA,1,NA,NA,"buildings, skyscrapers, houses, constructions (choose one)",NA,comp_class_warmup,NA
668,NA,woodpecker,NA,NA,NA,19,warmup/eagle.jpg,hummingbird,This is a,Yes I had to use firefox. Chrome wouldn't work. It wouldn't let me press next,1,birds,Jennifer,NA,eagle,NA,yes,Please label the pictures below.,NA,NA,24,NA,Thanks,NA,warmup/colibri.jpg,birds,some_college,NA,NA,English,male,NA,birds,NA,1,1571851612073,1,This is an,1,These are both,eagle,NA,NA,warmup1,NA
668,NA,hummingbird,NA,NA,NA,19,warmup/eagle.jpg,hummingbird,This is a,Yes I had to use firefox. Chrome wouldn't work. It wouldn't let me press next,1,birds,Jennifer,NA,eagle,NA,yes,Please label the pictures below.,NA,NA,24,NA,Thanks,NA,warmup/colibri.jpg,birds,some_college,NA,NA,English,male,NA,birds,NA,1,1571851612073,2,This is an,1,These are both,eagle,NA,NA,warmup1,NA
668,NA,sunflower,NA,NA,NA,19,warmup/sunflower.png,dandelion,This is a,Yes I had to use firefox. Chrome wouldn't work. It wouldn't let me press next,1,flowers,Jennifer,NA,sunflower,NA,yes,Please label the pictures below.,NA,NA,24,NA,Thanks,NA,warmup/dandelion.jpg,flowers,some_college,NA,NA,English,male,NA,flowers,NA,2,1571851612073,1,This is a,1,These are both,sunflower,NA,NA,warmup1,NA
668,NA,dandelion,NA,NA,NA,19,warmup/sunflower.png,dandelion,This is a,Yes I had to use firefox. Chrome wouldn't work. It wouldn't let me press next,1,flowers,Jennifer,NA,sunflower,NA,yes,Please label the pictures below.,NA,NA,24,NA,Thanks,NA,warmup/dandelion.jpg,flowers,some_college,NA,NA,English,male,NA,flowers,NA,2,1571851612073,2,This is a,1,These are both,sunflower,NA,NA,warmup1,NA
668,NA,pug,NA,NA,NA,19,warmup/great-dane.jpg,pug,This is a,Yes I had to use firefox. Chrome wouldn't work. It wouldn't let me press next,1,dogs,Jennifer,NA,great dane,NA,yes,Please label the pictures below.,NA,NA,24,NA,Thanks,NA,warmup/pug.jpg,dogs,some_college,NA,NA,English,male,NA,dogs,NA,3,1571851612073,1,This is a,1,These are both,hound,NA,NA,warmup1,NA
668,NA,pug,NA,NA,NA,19,warmup/great-dane.jpg,pug,This is a,Yes I had to use firefox. Chrome wouldn't work. It wouldn't let me press next,1,dogs,Jennifer,NA,great dane,NA,yes,Please label the pictures below.,NA,NA,24,NA,Thanks,NA,warmup/pug.jpg,dogs,some_college,NA,NA,English,male,NA,dogs,NA,3,1571851612073,2,This is a,1,These are both,great dane,NA,NA,warmup1,NA
668,What do you think your friend meant?,NA,It is small  relative to other,images/bird-parade-hummingbird.png,images/hummingbird.png,19,NA,NA,NA,Yes I had to use firefox. Chrome wouldn't work. It wouldn't let me press next,1,birds,Jennifer,NA,NA,1,yes,"Your friend runs far ahead of you, and you see him in the distance:",prenominal,NA,24,hummingbird,Thanks,2,NA,NA,some_college,small,NA,English,male,NA,NA,You and your friend see  the following:,1,1571851612073,NA,NA,1,NA,NA,NA,congr,custom_main_text1,Your friend says: <br/><b>That's a small one.</b>
668,What do you think your friend meant?,NA,It is big  relative to other,images/flower-parade-sunflower.png,images/sunflower.png,19,NA,NA,NA,Yes I had to use firefox. Chrome wouldn't work. It wouldn't let me press next,1,flowers,Jennifer,NA,NA,1,yes,"Your friend runs far ahead of you, and you see him in the distance:",prenominal,NA,24,sunflowers,Thanks,2,NA,NA,some_college,big,NA,English,male,NA,NA,You and your friend see  the following:,2,1571851612073,NA,NA,1,NA,NA,NA,congr,custom_main_text1,Your friend says: <br/><b>That's a big one.</b>
668,What do you think your friend meant?,NA,It is big  relative to other,images/dog-parade-great-dane.png,images/great-dane.png,19,NA,NA,NA,Yes I had to use firefox. Chrome wouldn't work. It wouldn't let me press next,1,dogs2,Jennifer,NA,NA,1,yes,"Your friend runs far ahead of you, and you see him in the distance:",prenominal,NA,24,dogs,Thanks,2,NA,NA,some_college,big,NA,English,male,NA,NA,You and your friend see  the following:,3,1571851612073,NA,NA,1,NA,NA,NA,congr,custom_main_text1,Your friend says: <br/><b>That's a big one.</b>
668,NA,shark,NA,NA,NA,19,warmup/goldfish.png,swordfish,This is a,Yes I had to use firefox. Chrome wouldn't work. It wouldn't let me press next,1,fish,Jennifer,NA,goldfish,NA,yes,Please label the pictures below.,NA,NA,24,NA,Thanks,NA,warmup/swordfish.jpg,fish,some_college,NA,NA,English,male,NA,fish,NA,1,1571851612073,1,This is a,1,These are both,goldfish,NA,NA,warmup2,NA
668,NA,swordfish,NA,NA,NA,19,warmup/goldfish.png,swordfish,This is a,Yes I had to use firefox. Chrome wouldn't work. It wouldn't let me press next,1,fish,Jennifer,NA,goldfish,NA,yes,Please label the pictures below.,NA,NA,24,NA,Thanks,NA,warmup/swordfish.jpg,fish,some_college,NA,NA,English,male,NA,fish,NA,1,1571851612073,2,This is a,1,These are both,goldfish,NA,NA,warmup2,NA
668,NA,chihuahua,NA,NA,NA,19,warmup/doberman.png,chihuahua,This is a,Yes I had to use firefox. Chrome wouldn't work. It wouldn't let me press next,1,dogs,Jennifer,NA,doberman,NA,yes,Please label the pictures below.,NA,NA,24,NA,Thanks,NA,warmup/chihuahua.jpg,dogs,some_college,NA,NA,English,male,NA,dogs,NA,2,1571851612073,1,This is a,1,These are both,doberman,NA,NA,warmup2,NA
668,NA,oak,NA,NA,NA,19,warmup/bonsai.jpg,redwood or sequoia (choose one),This is a,Yes I had to use firefox. Chrome wouldn't work. It wouldn't let me press next,1,trees,Jennifer,NA,bonsai,NA,yes,Please label the pictures below.,NA,NA,24,NA,Thanks,NA,warmup/sequoia.png,trees,some_college,NA,NA,English,male,NA,trees,NA,3,1571851612073,1,This is a,1,These are both,bonzai,NA,NA,warmup2,NA
668,NA,redwood,NA,NA,NA,19,warmup/bonsai.jpg,redwood or sequoia (choose one),This is a,Yes I had to use firefox. Chrome wouldn't work. It wouldn't let me press next,1,trees,Jennifer,NA,bonsai,NA,yes,Please label the pictures below.,NA,NA,24,NA,Thanks,NA,warmup/sequoia.png,trees,some_college,NA,NA,English,male,NA,trees,NA,3,1571851612073,2,This is a,1,These are both,bonsai,NA,NA,warmup2,NA
668,What do you think your friend meant?,NA,It is small  relative to other,images/tree-parade-basic.png,images/bonsai.png,19,NA,NA,NA,Yes I had to use firefox. Chrome wouldn't work. It wouldn't let me press next,1,trees,Jennifer,NA,NA,0,yes,"Your friend runs far ahead of you, and you see him in the distance:",prenominal,NA,24,trees,Thanks,2,NA,NA,some_college,small,NA,English,male,NA,NA,You and your friend see  the following:,1,1571851612073,NA,NA,1,NA,NA,NA,basic,custom_main_text2,Your friend says: <br/><b>That's a small one.</b>
668,What do you think your friend meant?,NA,It is small  relative to other,images/dog-parade-basic.png,images/chihuahua.png,19,NA,NA,NA,Yes I had to use firefox. Chrome wouldn't work. It wouldn't let me press next,1,dogs1,Jennifer,NA,NA,0,yes,"Your friend runs far ahead of you, and you see him in the distance:",prenominal,NA,24,dogs,Thanks,2,NA,NA,some_college,small,NA,English,male,NA,NA,You and your friend see  the following:,2,1571851612073,NA,NA,1,NA,NA,NA,basic,custom_main_text2,Your friend says: <br/><b>That's a small one.</b>
668,What do you think your friend meant?,NA,It is big  relative to other,images/fish-parade-basic.png,images/swordfish.png,19,NA,NA,NA,Yes I had to use firefox. Chrome wouldn't work. It wouldn't let me press next,1,fish,Jennifer,NA,NA,0,yes,"Your friend runs far ahead of you, and you see him in the distance:",prenominal,NA,24,fish,Thanks,2,NA,NA,some_college,big,NA,English,male,NA,NA,You and your friend see  the following:,3,1571851612073,NA,NA,1,NA,NA,NA,basic,custom_main_text2,Your friend says: <br/><b>That's a big one.</b>
666,<i>What do you think Speaker A meant? </i>,NA,The Empire State Building is tall relative to other,NA,NA,19,NA,NA,NA,none,1,NA,margaret,1,NA,NA,yes,NA,NA,"<b> Speaker A: ""The Empire State Building is tall.""</b>",39,buildings,none,NA,NA,NA,graduated_college,NA,comp_class_warmup,english,male,NA,NA,In the main trials you will be asked to rephrase something a person said. The utterance will contain a word that is <i>relative</i> and your task is to figure out what it is relative to. <br /> <br /> For example: <br /><br />,1,1571851354859,1,NA,1.5,NA,NA,"buildings, skyscrapers, houses, constructions (choose one)",NA,comp_class_warmup,NA
666,NA,small dog,NA,NA,NA,19,warmup/doberman.png,chihuahua,This is a,none,1,dogs,margaret,NA,doberman,NA,yes,Please label the pictures below.,NA,NA,39,NA,none,NA,warmup/chihuahua.jpg,dogs,graduated_college,NA,NA,english,male,NA,dogs,NA,1,1571851354859,1,This is a,1.5,These are both,large dog,NA,NA,warmup1,NA
666,NA,chihuahua,NA,NA,NA,19,warmup/doberman.png,chihuahua,This is a,none,1,dogs,margaret,NA,doberman,NA,yes,Please label the pictures below.,NA,NA,39,NA,none,NA,warmup/chihuahua.jpg,dogs,graduated_college,NA,NA,english,male,NA,dogs,NA,1,1571851354859,2,This is a,1.5,These are both,doberman,NA,NA,warmup1,NA
666,NA,oak,NA,NA,NA,19,warmup/bonsai.jpg,redwood or sequoia (choose one),This is a,none,1,trees,margaret,NA,bonsai,NA,yes,Please label the pictures below.,NA,NA,39,NA,none,NA,warmup/sequoia.png,trees,graduated_college,NA,NA,english,male,NA,trees,NA,2,1571851354859,1,This is a,1.5,These are both,pine,NA,NA,warmup1,NA
666,NA,redwood,NA,NA,NA,19,warmup/bonsai.jpg,redwood or sequoia (choose one),This is a,none,1,trees,margaret,NA,bonsai,NA,yes,Please label the pictures below.,NA,NA,39,NA,none,NA,warmup/sequoia.png,trees,graduated_college,NA,NA,english,male,NA,trees,NA,2,1571851354859,2,This is a,1.5,These are both,bonsai,NA,NA,warmup1,NA
666,NA,humming bird,NA,NA,NA,19,warmup/eagle.jpg,hummingbird,This is a,none,1,birds,margaret,NA,eagle,NA,yes,Please label the pictures below.,NA,NA,39,NA,none,NA,warmup/colibri.jpg,birds,graduated_college,NA,NA,english,male,NA,birds,NA,3,1571851354859,1,This is an,1.5,These are both,eagle,NA,NA,warmup1,NA
666,NA,hummingbird,NA,NA,NA,19,warmup/eagle.jpg,hummingbird,This is a,none,1,birds,margaret,NA,eagle,NA,yes,Please label the pictures below.,NA,NA,39,NA,none,NA,warmup/colibri.jpg,birds,graduated_college,NA,NA,english,male,NA,birds,NA,3,1571851354859,2,This is an,1.5,These are both,eagle,NA,NA,warmup1,NA
666,What do you think your friend meant?,NA,It is big  relative to other,images/dog-parade-doberman.png,images/doberman.png,19,NA,NA,NA,none,1,dogs1,margaret,NA,NA,1,yes,"Your friend runs far ahead of you, and you see him in the distance:",prenominal,NA,39,dobermans,none,2,NA,NA,graduated_college,big,NA,english,male,NA,NA,You and your friend see  the following:,1,1571851354859,NA,NA,1.5,NA,NA,NA,congr,custom_main_text1,Your friend says: <br/><b>That's a big one.</b>
666,What do you think your friend meant?,NA,It is small  relative to other,images/bird-parade-basic.png,images/hummingbird.png,19,NA,NA,NA,none,1,birds,margaret,NA,NA,0,yes,"Your friend runs far ahead of you, and you see him in the distance:",prenominal,NA,39,birds,none,2,NA,NA,graduated_college,small,NA,english,male,NA,NA,You and your friend see  the following:,2,1571851354859,NA,NA,1.5,NA,NA,NA,basic,custom_main_text1,Your friend says: <br/><b>That's a small one.</b>
666,What do you think your friend meant?,NA,It is small  relative to other,images/tree-parade-basic.png,images/bonsai.png,19,NA,NA,NA,none,1,trees,margaret,NA,NA,0,yes,"Your friend runs far ahead of you, and you see him in the distance:",prenominal,NA,39,trees,none,2,NA,NA,graduated_college,small,NA,english,male,NA,NA,You and your friend see  the following:,3,1571851354859,NA,NA,1.5,NA,NA,NA,basic,custom_main_text1,Your friend says: <br/><b>That's a small one.</b>
666,NA,pug,NA,NA,NA,19,warmup/great-dane.jpg,pug,This is a,none,1,dogs,margaret,NA,great dane,NA,yes,Please label the pictures below.,NA,NA,39,NA,none,NA,warmup/pug.jpg,dogs,graduated_college,NA,NA,english,male,NA,dogs,NA,1,1571851354859,1,This is a,1.5,These are both,great dane,NA,NA,warmup2,NA
666,NA,daisy,NA,NA,NA,19,warmup/sunflower.png,dandelion,This is a,none,1,flowers,margaret,NA,sunflower,NA,yes,Please label the pictures below.,NA,NA,39,NA,none,NA,warmup/dandelion.jpg,flowers,graduated_college,NA,NA,english,male,NA,flowers,NA,2,1571851354859,1,This is a,1.5,These are both,sunflower,NA,NA,warmup2,NA
666,NA,dandelion,NA,NA,NA,19,warmup/sunflower.png,dandelion,This is a,none,1,flowers,margaret,NA,sunflower,NA,yes,Please label the pictures below.,NA,NA,39,NA,none,NA,warmup/dandelion.jpg,flowers,graduated_college,NA,NA,english,male,NA,flowers,NA,2,1571851354859,2,This is a,1.5,These are both,sunflower,NA,NA,warmup2,NA
666,NA,dolphin,NA,NA,NA,19,warmup/goldfish.png,swordfish,This is a,none,1,fish,margaret,NA,goldfish,NA,yes,Please label the pictures below.,NA,NA,39,NA,none,NA,warmup/swordfish.jpg,fish,graduated_college,NA,NA,english,male,NA,fish,NA,3,1571851354859,1,This is a,1.5,These are both,goldfish,NA,NA,warmup2,NA
666,NA,swordfish,NA,NA,NA,19,warmup/goldfish.png,swordfish,This is a,none,1,fish,margaret,NA,goldfish,NA,yes,Please label the pictures below.,NA,NA,39,NA,none,NA,warmup/swordfish.jpg,fish,graduated_college,NA,NA,english,male,NA,fish,NA,3,1571851354859,2,This is a,1.5,These are both,goldfish,NA,NA,warmup2,NA
666,What do you think your friend meant?,NA,It is big  relative to other,images/dog-parade-basic2.png,images/great-dane.png,19,NA,NA,NA,none,1,dogs2,margaret,NA,NA,0,yes,"Your friend runs far ahead of you, and you see him in the distance:",prenominal,NA,39,dogs,none,2,NA,NA,graduated_college,big,NA,english,male,NA,NA,You and your friend see  the following:,1,1571851354859,NA,NA,1.5,NA,NA,NA,basic,custom_main_text2,Your friend says: <br/><b>That's a big one.</b>
666,What do you think your friend meant?,NA,It is small  relative to other,images/flower-parade-dandelion.png,images/dandelion.png,19,NA,NA,NA,none,1,flowers,margaret,NA,NA,1,yes,"Your friend runs far ahead of you, and you see him in the distance:",prenominal,NA,39,dandelions,none,2,NA,NA,graduated_college,small,NA,english,male,NA,NA,You and your friend see  the following:,2,1571851354859,NA,NA,1.5,NA,NA,NA,congr,custom_main_text2,Your friend says: <br/><b>That's a small one.</b>
666,What do you think your friend meant?,NA,It is big  relative to other,images/fish-parade-swordfish.png,images/swordfish.png,19,NA,NA,NA,none,1,fish,margaret,NA,NA,1,yes,"Your friend runs far ahead of you, and you see him in the distance:",prenominal,NA,39,swordfish,none,2,NA,NA,graduated_college,big,NA,english,male,NA,NA,You and your friend see  the following:,3,1571851354859,NA,NA,1.5,NA,NA,NA,congr,custom_main_text2,Your friend says: <br/><b>That's a big one.</b>
660,<i>What do you think Speaker A meant? </i>,NA,The Empire State Building is tall relative to other,NA,NA,19,NA,NA,NA,Not at all.,1,NA,elizabeth,1,NA,NA,yes,NA,NA,"<b> Speaker A: ""The Empire State Building is tall.""</b>",51,buildings,"Interesting experiment. My only complaint is that the names allowed for the pictures were too specific. About half of these were not common objects that everybody knows the name for off the top of their head. It would improve the experiment, I think, to include pictures that are more generic. I appreciate, however, that the presentation made it easy to know what name(s) you sought without penalizing participants for not stating so initially.",NA,NA,NA,higher_degree,NA,comp_class_warmup,English,female,NA,NA,In the main trials you will be asked to rephrase something a person said. The utterance will contain a word that is <i>relative</i> and your task is to figure out what it is relative to. <br /> <br /> For example: <br /><br />,1,1571850523089,1,NA,1,NA,NA,"buildings, skyscrapers, houses, constructions (choose one)",NA,comp_class_warmup,NA
660,NA,shark,NA,NA,NA,19,warmup/goldfish.png,swordfish,This is a,Not at all.,1,fish,elizabeth,NA,goldfish,NA,yes,Please label the pictures below.,NA,NA,51,NA,"Interesting experiment. My only complaint is that the names allowed for the pictures were too specific. About half of these were not common objects that everybody knows the name for off the top of their head. It would improve the experiment, I think, to include pictures that are more generic. I appreciate, however, that the presentation made it easy to know what name(s) you sought without penalizing participants for not stating so initially.",NA,warmup/swordfish.jpg,fish,higher_degree,NA,NA,English,female,NA,fish,NA,1,1571850523089,1,This is a,1,These are both,goldfish,NA,NA,warmup1,NA
660,NA,swordfish,NA,NA,NA,19,warmup/goldfish.png,swordfish,This is a,Not at all.,1,fish,elizabeth,NA,goldfish,NA,yes,Please label the pictures below.,NA,NA,51,NA,"Interesting experiment. My only complaint is that the names allowed for the pictures were too specific. About half of these were not common objects that everybody knows the name for off the top of their head. It would improve the experiment, I think, to include pictures that are more generic. I appreciate, however, that the presentation made it easy to know what name(s) you sought without penalizing participants for not stating so initially.",NA,warmup/swordfish.jpg,fish,higher_degree,NA,NA,English,female,NA,fish,NA,1,1571850523089,2,This is a,1,These are both,goldfish,NA,NA,warmup1,NA
660,NA,chihuahua,NA,NA,NA,19,warmup/doberman.png,chihuahua,This is a,Not at all.,1,dogs,elizabeth,NA,doberman,NA,yes,Please label the pictures below.,NA,NA,51,NA,"Interesting experiment. My only complaint is that the names allowed for the pictures were too specific. About half of these were not common objects that everybody knows the name for off the top of their head. It would improve the experiment, I think, to include pictures that are more generic. I appreciate, however, that the presentation made it easy to know what name(s) you sought without penalizing participants for not stating so initially.",NA,warmup/chihuahua.jpg,dogs,higher_degree,NA,NA,English,female,NA,dogs,NA,2,1571850523089,1,This is a,1,These are both,doberman,NA,NA,warmup1,NA
660,NA,robin,NA,NA,NA,19,warmup/eagle.jpg,hummingbird,This is a,Not at all.,1,birds,elizabeth,NA,eagle,NA,yes,Please label the pictures below.,NA,NA,51,NA,"Interesting experiment. My only complaint is that the names allowed for the pictures were too specific. About half of these were not common objects that everybody knows the name for off the top of their head. It would improve the experiment, I think, to include pictures that are more generic. I appreciate, however, that the presentation made it easy to know what name(s) you sought without penalizing participants for not stating so initially.",NA,warmup/colibri.jpg,birds,higher_degree,NA,NA,English,female,NA,birds,NA,3,1571850523089,1,This is an,1,These are both,eagle,NA,NA,warmup1,NA
660,NA,hummingbird,NA,NA,NA,19,warmup/eagle.jpg,hummingbird,This is a,Not at all.,1,birds,elizabeth,NA,eagle,NA,yes,Please label the pictures below.,NA,NA,51,NA,"Interesting experiment. My only complaint is that the names allowed for the pictures were too specific. About half of these were not common objects that everybody knows the name for off the top of their head. It would improve the experiment, I think, to include pictures that are more generic. I appreciate, however, that the presentation made it easy to know what name(s) you sought without penalizing participants for not stating so initially.",NA,warmup/colibri.jpg,birds,higher_degree,NA,NA,English,female,NA,birds,NA,3,1571850523089,2,This is an,1,These are both,eagle,NA,NA,warmup1,NA
660,What do you think your friend meant?,NA,It is small  relative to other,images/fish-parade-goldfish.png,images/goldfish.png,19,NA,NA,NA,Not at all.,1,fish,elizabeth,NA,NA,1,yes,"Your friend runs far ahead of you, and you see him in the distance:",prenominal,NA,51,fish,"Interesting experiment. My only complaint is that the names allowed for the pictures were too specific. About half of these were not common objects that everybody knows the name for off the top of their head. It would improve the experiment, I think, to include pictures that are more generic. I appreciate, however, that the presentation made it easy to know what name(s) you sought without penalizing participants for not stating so initially.",2,NA,NA,higher_degree,small,NA,English,female,NA,NA,You and your friend see  the following:,1,1571850523089,NA,NA,1,NA,NA,NA,congr,custom_main_text1,Your friend says: <br/><b>That's a small one.</b>
660,What do you think your friend meant?,NA,It is big  relative to other,images/dog-parade-basic.png,images/doberman.png,19,NA,NA,NA,Not at all.,1,dogs1,elizabeth,NA,NA,0,yes,"Your friend runs far ahead of you, and you see him in the distance:",prenominal,NA,51,dogs,"Interesting experiment. My only complaint is that the names allowed for the pictures were too specific. About half of these were not common objects that everybody knows the name for off the top of their head. It would improve the experiment, I think, to include pictures that are more generic. I appreciate, however, that the presentation made it easy to know what name(s) you sought without penalizing participants for not stating so initially.",2,NA,NA,higher_degree,big,NA,English,female,NA,NA,You and your friend see  the following:,2,1571850523089,NA,NA,1,NA,NA,NA,basic,custom_main_text1,Your friend says: <br/><b>That's a big one.</b>
660,What do you think your friend meant?,NA,It is big  relative to other,images/bird-parade-basic.png,images/eagle.png,19,NA,NA,NA,Not at all.,1,birds,elizabeth,NA,NA,0,yes,"Your friend runs far ahead of you, and you see him in the distance:",prenominal,NA,51,birds,"Interesting experiment. My only complaint is that the names allowed for the pictures were too specific. About half of these were not common objects that everybody knows the name for off the top of their head. It would improve the experiment, I think, to include pictures that are more generic. I appreciate, however, that the presentation made it easy to know what name(s) you sought without penalizing participants for not stating so initially.",2,NA,NA,higher_degree,big,NA,English,female,NA,NA,You and your friend see  the following:,3,1571850523089,NA,NA,1,NA,NA,NA,basic,custom_main_text1,Your friend says: <br/><b>That's a big one.</b>
660,NA,oak tree,NA,NA,NA,19,warmup/bonsai.jpg,redwood or sequoia (choose one),This is a,Not at all.,1,trees,elizabeth,NA,bonsai,NA,yes,Please label the pictures below.,NA,NA,51,NA,"Interesting experiment. My only complaint is that the names allowed for the pictures were too specific. About half of these were not common objects that everybody knows the name for off the top of their head. It would improve the experiment, I think, to include pictures that are more generic. I appreciate, however, that the presentation made it easy to know what name(s) you sought without penalizing participants for not stating so initially.",NA,warmup/sequoia.png,trees,higher_degree,NA,NA,English,female,NA,trees,NA,1,1571850523089,1,This is a,1,These are both,bonsai tree,NA,NA,warmup2,NA
660,NA,redwood,NA,NA,NA,19,warmup/bonsai.jpg,redwood or sequoia (choose one),This is a,Not at all.,1,trees,elizabeth,NA,bonsai,NA,yes,Please label the pictures below.,NA,NA,51,NA,"Interesting experiment. My only complaint is that the names allowed for the pictures were too specific. About half of these were not common objects that everybody knows the name for off the top of their head. It would improve the experiment, I think, to include pictures that are more generic. I appreciate, however, that the presentation made it easy to know what name(s) you sought without penalizing participants for not stating so initially.",NA,warmup/sequoia.png,trees,higher_degree,NA,NA,English,female,NA,trees,NA,1,1571850523089,2,This is a,1,These are both,bonsai tree,NA,NA,warmup2,NA
660,NA,redwood,NA,NA,NA,19,warmup/bonsai.jpg,redwood or sequoia (choose one),This is a,Not at all.,1,trees,elizabeth,NA,bonsai,NA,yes,Please label the pictures below.,NA,NA,51,NA,"Interesting experiment. My only complaint is that the names allowed for the pictures were too specific. About half of these were not common objects that everybody knows the name for off the top of their head. It would improve the experiment, I think, to include pictures that are more generic. I appreciate, however, that the presentation made it easy to know what name(s) you sought without penalizing participants for not stating so initially.",NA,warmup/sequoia.png,trees,higher_degree,NA,NA,English,female,NA,trees,NA,1,1571850523089,3,This is a,1,These are both,bonsai,NA,NA,warmup2,NA
660,NA,poppy,NA,NA,NA,19,warmup/sunflower.png,dandelion,This is a,Not at all.,1,flowers,elizabeth,NA,sunflower,NA,yes,Please label the pictures below.,NA,NA,51,NA,"Interesting experiment. My only complaint is that the names allowed for the pictures were too specific. About half of these were not common objects that everybody knows the name for off the top of their head. It would improve the experiment, I think, to include pictures that are more generic. I appreciate, however, that the presentation made it easy to know what name(s) you sought without penalizing participants for not stating so initially.",NA,warmup/dandelion.jpg,flowers,higher_degree,NA,NA,English,female,NA,flowers,NA,2,1571850523089,1,This is a,1,These are both,sunflower,NA,NA,warmup2,NA
660,NA,dandelion,NA,NA,NA,19,warmup/sunflower.png,dandelion,This is a,Not at all.,1,flowers,elizabeth,NA,sunflower,NA,yes,Please label the pictures below.,NA,NA,51,NA,"Interesting experiment. My only complaint is that the names allowed for the pictures were too specific. About half of these were not common objects that everybody knows the name for off the top of their head. It would improve the experiment, I think, to include pictures that are more generic. I appreciate, however, that the presentation made it easy to know what name(s) you sought without penalizing participants for not stating so initially.",NA,warmup/dandelion.jpg,flowers,higher_degree,NA,NA,English,female,NA,flowers,NA,2,1571850523089,2,This is a,1,These are both,sunflower,NA,NA,warmup2,NA
660,NA,pug,NA,NA,NA,19,warmup/great-dane.jpg,pug,This is a,Not at all.,1,dogs,elizabeth,NA,great dane,NA,yes,Please label the pictures below.,NA,NA,51,NA,"Interesting experiment. My only complaint is that the names allowed for the pictures were too specific. About half of these were not common objects that everybody knows the name for off the top of their head. It would improve the experiment, I think, to include pictures that are more generic. I appreciate, however, that the presentation made it easy to know what name(s) you sought without penalizing participants for not stating so initially.",NA,warmup/pug.jpg,dogs,higher_degree,NA,NA,English,female,NA,dogs,NA,3,1571850523089,1,This is a,1,These are both,retriever,NA,NA,warmup2,NA
660,NA,pug,NA,NA,NA,19,warmup/great-dane.jpg,pug,This is a,Not at all.,1,dogs,elizabeth,NA,great dane,NA,yes,Please label the pictures below.,NA,NA,51,NA,"Interesting experiment. My only complaint is that the names allowed for the pictures were too specific. About half of these were not common objects that everybody knows the name for off the top of their head. It would improve the experiment, I think, to include pictures that are more generic. I appreciate, however, that the presentation made it easy to know what name(s) you sought without penalizing participants for not stating so initially.",NA,warmup/pug.jpg,dogs,higher_degree,NA,NA,English,female,NA,dogs,NA,3,1571850523089,2,This is a,1,These are both,great dane,NA,NA,warmup2,NA
660,What do you think your friend meant?,NA,It is small  relative to other,images/dog-parade-pug.png,images/pug.png,19,NA,NA,NA,Not at all.,1,dogs2,elizabeth,NA,NA,1,yes,"Your friend runs far ahead of you, and you see him in the distance:",prenominal,NA,51,pugs,"Interesting experiment. My only complaint is that the names allowed for the pictures were too specific. About half of these were not common objects that everybody knows the name for off the top of their head. It would improve the experiment, I think, to include pictures that are more generic. I appreciate, however, that the presentation made it easy to know what name(s) you sought without penalizing participants for not stating so initially.",2,NA,NA,higher_degree,small,NA,English,female,NA,NA,You and your friend see  the following:,1,1571850523089,NA,NA,1,NA,NA,NA,congr,custom_main_text2,Your friend says: <br/><b>That's a small one.</b>
660,What do you think your friend meant?,NA,It is big  relative to other,images/tree-parade-redwood.png,images/redwood.png,19,NA,NA,NA,Not at all.,1,trees,elizabeth,NA,NA,1,yes,"Your friend runs far ahead of you, and you see him in the distance:",prenominal,NA,51,redwoods,"Interesting experiment. My only complaint is that the names allowed for the pictures were too specific. About half of these were not common objects that everybody knows the name for off the top of their head. It would improve the experiment, I think, to include pictures that are more generic. I appreciate, however, that the presentation made it easy to know what name(s) you sought without penalizing participants for not stating so initially.",2,NA,NA,higher_degree,big,NA,English,female,NA,NA,You and your friend see  the following:,2,1571850523089,NA,NA,1,NA,NA,NA,congr,custom_main_text2,Your friend says: <br/><b>That's a big one.</b>
660,What do you think your friend meant?,NA,It is small  relative to other,images/flower-parade-basic.png,images/dandelion.png,19,NA,NA,NA,Not at all.,1,flowers,elizabeth,NA,NA,0,yes,"Your friend runs far ahead of you, and you see him in the distance:",prenominal,NA,51,flowers,"Interesting experiment. My only complaint is that the names allowed for the pictures were too specific. About half of these were not common objects that everybody knows the name for off the top of their head. It would improve the experiment, I think, to include pictures that are more generic. I appreciate, however, that the presentation made it easy to know what name(s) you sought without penalizing participants for not stating so initially.",2,NA,NA,higher_degree,small,NA,English,female,NA,NA,You and your friend see  the following:,3,1571850523089,NA,NA,1,NA,NA,NA,basic,custom_main_text2,Your friend says: <br/><b>That's a small one.</b>
654,<i>What do you think Speaker A meant? </i>,NA,The Empire State Building is tall relative to other,NA,NA,19,NA,NA,NA,No,1,NA,Patricia,1,NA,NA,yes,NA,NA,"<b> Speaker A: ""The Empire State Building is tall.""</b>",24,buildings,NA,NA,NA,NA,graduated_high_school,NA,comp_class_warmup,English,male,NA,NA,In the main trials you will be asked to rephrase something a person said. The utterance will contain a word that is <i>relative</i> and your task is to figure out what it is relative to. <br /> <br /> For example: <br /><br />,1,1571851055135,1,NA,1,NA,NA,"buildings, skyscrapers, houses, constructions (choose one)",NA,comp_class_warmup,NA
654,NA,flower,NA,NA,NA,19,warmup/sunflower.png,dandelion,This is a,No,1,flowers,Patricia,NA,sunflower,NA,yes,Please label the pictures below.,NA,NA,24,NA,NA,NA,warmup/dandelion.jpg,flower,graduated_high_school,NA,NA,English,male,NA,flowers,NA,1,1571851055135,1,This is a,1,These are both,sunflower,NA,NA,warmup1,NA
654,NA,dandelion,NA,NA,NA,19,warmup/sunflower.png,dandelion,This is a,No,1,flowers,Patricia,NA,sunflower,NA,yes,Please label the pictures below.,NA,NA,24,NA,NA,NA,warmup/dandelion.jpg,flower,graduated_high_school,NA,NA,English,male,NA,flowers,NA,1,1571851055135,2,This is a,1,These are both,sunflower,NA,NA,warmup1,NA
654,NA,dandelion,NA,NA,NA,19,warmup/sunflower.png,dandelion,This is a,No,1,flowers,Patricia,NA,sunflower,NA,yes,Please label the pictures below.,NA,NA,24,NA,NA,NA,warmup/dandelion.jpg,flowers,graduated_high_school,NA,NA,English,male,NA,flowers,NA,1,1571851055135,3,This is a,1,These are both,sunflower,NA,NA,warmup1,NA
654,NA,tree,NA,NA,NA,19,warmup/bonsai.jpg,redwood or sequoia (choose one),This is a,No,1,trees,Patricia,NA,bonsai,NA,yes,Please label the pictures below.,NA,NA,24,NA,NA,NA,warmup/sequoia.png,trees,graduated_high_school,NA,NA,English,male,NA,trees,NA,2,1571851055135,1,This is a,1,These are both,tiny tree,NA,NA,warmup1,NA
654,NA,redwood,NA,NA,NA,19,warmup/bonsai.jpg,redwood or sequoia (choose one),This is a,No,1,trees,Patricia,NA,bonsai,NA,yes,Please label the pictures below.,NA,NA,24,NA,NA,NA,warmup/sequoia.png,trees,graduated_high_school,NA,NA,English,male,NA,trees,NA,2,1571851055135,2,This is a,1,These are both,bonsai,NA,NA,warmup1,NA
654,NA,pug,NA,NA,NA,19,warmup/great-dane.jpg,pug,This is a,No,1,dogs,Patricia,NA,great dane,NA,yes,Please label the pictures below.,NA,NA,24,NA,NA,NA,warmup/pug.jpg,dogs,graduated_high_school,NA,NA,English,male,NA,dogs,NA,3,1571851055135,1,This is a,1,These are both,dog,NA,NA,warmup1,NA
654,NA,pug,NA,NA,NA,19,warmup/great-dane.jpg,pug,This is a,No,1,dogs,Patricia,NA,great dane,NA,yes,Please label the pictures below.,NA,NA,24,NA,NA,NA,warmup/pug.jpg,dogs,graduated_high_school,NA,NA,English,male,NA,dogs,NA,3,1571851055135,2,This is a,1,These are both,great dane,NA,NA,warmup1,NA
654,What do you think your friend meant?,NA,It is big  relative to other,images/flower-parade-basic.png,images/sunflower.png,19,NA,NA,NA,No,1,flowers,Patricia,NA,NA,0,yes,"Your friend runs far ahead of you, and you see him in the distance:",prenominal,NA,24,friend,NA,2,NA,NA,graduated_high_school,big,NA,English,male,NA,NA,You and your friend see  the following:,1,1571851055135,NA,NA,1,NA,NA,NA,basic,custom_main_text1,Your friend says: <br/><b>That's a big one.</b>
654,What do you think your friend meant?,NA,It is small  relative to other,images/dog-parade-pug.png,images/pug.png,19,NA,NA,NA,No,1,dogs2,Patricia,NA,NA,1,yes,"Your friend runs far ahead of you, and you see him in the distance:",prenominal,NA,24,dog,NA,2,NA,NA,graduated_high_school,small,NA,English,male,NA,NA,You and your friend see  the following:,2,1571851055135,NA,NA,1,NA,NA,NA,congr,custom_main_text1,Your friend says: <br/><b>That's a small one.</b>
654,What do you think your friend meant?,NA,It is big  relative to other,images/tree-parade-redwood.png,images/redwood.png,19,NA,NA,NA,No,1,trees,Patricia,NA,NA,1,yes,"Your friend runs far ahead of you, and you see him in the distance:",prenominal,NA,24,biggest,NA,2,NA,NA,graduated_high_school,big,NA,English,male,NA,NA,You and your friend see  the following:,3,1571851055135,NA,NA,1,NA,NA,NA,congr,custom_main_text1,Your friend says: <br/><b>That's a big one.</b>
654,NA,puppy,NA,NA,NA,19,warmup/doberman.png,chihuahua,This is a,No,1,dogs,Patricia,NA,doberman,NA,yes,Please label the pictures below.,NA,NA,24,NA,NA,NA,warmup/chihuahua.jpg,dogs,graduated_high_school,NA,NA,English,male,NA,dogs,NA,1,1571851055135,1,This is a,1,These are both,dog,NA,NA,warmup2,NA
654,NA,chihuahua,NA,NA,NA,19,warmup/doberman.png,chihuahua,This is a,No,1,dogs,Patricia,NA,doberman,NA,yes,Please label the pictures below.,NA,NA,24,NA,NA,NA,warmup/chihuahua.jpg,dogs,graduated_high_school,NA,NA,English,male,NA,dogs,NA,1,1571851055135,2,This is a,1,These are both,doberman,NA,NA,warmup2,NA
654,NA,swordfish,NA,NA,NA,19,warmup/goldfish.png,swordfish,This is a,No,1,fish,Patricia,NA,goldfish,NA,yes,Please label the pictures below.,NA,NA,24,NA,NA,NA,warmup/swordfish.jpg,fish,graduated_high_school,NA,NA,English,male,NA,fish,NA,2,1571851055135,1,This is a,1,These are both,goldfish,NA,NA,warmup2,NA
654,NA,bird,NA,NA,NA,19,warmup/eagle.jpg,hummingbird,This is a,No,1,birds,Patricia,NA,eagle,NA,yes,Please label the pictures below.,NA,NA,24,NA,NA,NA,warmup/colibri.jpg,birds,graduated_high_school,NA,NA,English,male,NA,birds,NA,3,1571851055135,1,This is an,1,These are both,eagle,NA,NA,warmup2,NA
654,NA,hummingbird,NA,NA,NA,19,warmup/eagle.jpg,hummingbird,This is a,No,1,birds,Patricia,NA,eagle,NA,yes,Please label the pictures below.,NA,NA,24,NA,NA,NA,warmup/colibri.jpg,birds,graduated_high_school,NA,NA,English,male,NA,birds,NA,3,1571851055135,2,This is an,1,These are both,eagle,NA,NA,warmup2,NA
654,What do you think your friend meant?,NA,It is big  relative to other,images/dog-parade-doberman.png,images/doberman.png,19,NA,NA,NA,No,1,dogs1,Patricia,NA,NA,1,yes,"Your friend runs far ahead of you, and you see him in the distance:",prenominal,NA,24,dog,NA,2,NA,NA,graduated_high_school,big,NA,English,male,NA,NA,You and your friend see  the following:,1,1571851055135,NA,NA,1,NA,NA,NA,congr,custom_main_text2,Your friend says: <br/><b>That's a big one.</b>
654,What do you think your friend meant?,NA,It is small  relative to other,images/bird-parade-basic.png,images/hummingbird.png,19,NA,NA,NA,No,1,birds,Patricia,NA,NA,0,yes,"Your friend runs far ahead of you, and you see him in the distance:",prenominal,NA,24,bird,NA,2,NA,NA,graduated_high_school,small,NA,English,male,NA,NA,You and your friend see  the following:,2,1571851055135,NA,NA,1,NA,NA,NA,basic,custom_main_text2,Your friend says: <br/><b>That's a small one.</b>
654,What do you think your friend meant?,NA,It is small  relative to other,images/fish-parade-basic.png,images/goldfish.png,19,NA,NA,NA,No,1,fish,Patricia,NA,NA,0,yes,"Your friend runs far ahead of you, and you see him in the distance:",prenominal,NA,24,fish,NA,2,NA,NA,graduated_high_school,small,NA,English,male,NA,NA,You and your friend see  the following:,3,1571851055135,NA,NA,1,NA,NA,NA,basic,custom_main_text2,Your friend says: <br/><b>That's a small one.</b>
653,<i>What do you think Speaker A meant? </i>,NA,The Empire State Building is tall relative to other,NA,NA,19,NA,NA,NA,no-,2,NA,Barbara,1,NA,NA,yes,NA,NA,"<b> Speaker A: ""The Empire State Building is tall.""</b>",31,buildings,-,NA,NA,NA,graduated_high_school,NA,comp_class_warmup,english,female,NA,NA,In the main trials you will be asked to rephrase something a person said. The utterance will contain a word that is <i>relative</i> and your task is to figure out what it is relative to. <br /> <br /> For example: <br /><br />,1,1571850801899,1,NA,NA,NA,NA,"buildings, skyscrapers, houses, constructions (choose one)",NA,comp_class_warmup,NA
653,NA,tree,NA,NA,NA,19,warmup/bonsai.jpg,redwood or sequoia (choose one),This is a,no-,2,trees,Barbara,NA,bonsai,NA,yes,Please label the pictures below.,NA,NA,31,NA,-,NA,warmup/sequoia.png,trees,graduated_high_school,NA,NA,english,female,NA,trees,NA,1,1571850801899,1,This is a,NA,These are both,tree,NA,NA,warmup1,NA
653,NA,redwood,NA,NA,NA,19,warmup/bonsai.jpg,redwood or sequoia (choose one),This is a,no-,2,trees,Barbara,NA,bonsai,NA,yes,Please label the pictures below.,NA,NA,31,NA,-,NA,warmup/sequoia.png,trees,graduated_high_school,NA,NA,english,female,NA,trees,NA,1,1571850801899,2,This is a,NA,These are both,bonsai,NA,NA,warmup1,NA
653,NA,stingray,NA,NA,NA,19,warmup/goldfish.png,swordfish,This is a,no-,2,fish,Barbara,NA,goldfish,NA,yes,Please label the pictures below.,NA,NA,31,NA,-,NA,warmup/swordfish.jpg,fish,graduated_high_school,NA,NA,english,female,NA,fish,NA,2,1571850801899,1,This is a,NA,These are both,goldfish,NA,NA,warmup1,NA
653,NA,swordfish,NA,NA,NA,19,warmup/goldfish.png,swordfish,This is a,no-,2,fish,Barbara,NA,goldfish,NA,yes,Please label the pictures below.,NA,NA,31,NA,-,NA,warmup/swordfish.jpg,fish,graduated_high_school,NA,NA,english,female,NA,fish,NA,2,1571850801899,2,This is a,NA,These are both,goldfish,NA,NA,warmup1,NA
653,NA,puppy,NA,NA,NA,19,warmup/great-dane.jpg,pug,This is a,no-,2,dogs,Barbara,NA,great dane,NA,yes,Please label the pictures below.,NA,NA,31,NA,-,NA,warmup/pug.jpg,dogs,graduated_high_school,NA,NA,english,female,NA,dogs,NA,3,1571850801899,1,This is a,NA,These are both,dog,NA,NA,warmup1,NA
653,NA,pug,NA,NA,NA,19,warmup/great-dane.jpg,pug,This is a,no-,2,dogs,Barbara,NA,great dane,NA,yes,Please label the pictures below.,NA,NA,31,NA,-,NA,warmup/pug.jpg,dogs,graduated_high_school,NA,NA,english,female,NA,dogs,NA,3,1571850801899,2,This is a,NA,These are both,great dane,NA,NA,warmup1,NA
653,What do you think your friend meant?,NA,It is small  relative to other,images/dog-parade-pug.png,images/pug.png,19,NA,NA,NA,no-,2,dogs2,Barbara,NA,NA,1,yes,"Your friend runs far ahead of you, and you see him in the distance:",prenominal,NA,31,pugs,-,2,NA,NA,graduated_high_school,small,NA,english,female,NA,NA,You and your friend see  the following:,1,1571850801899,NA,NA,NA,NA,NA,NA,congr,custom_main_text1,Your friend says: <br/><b>That's a small one.</b>
653,What do you think your friend meant?,NA,It is big  relative to other,images/fish-parade-basic.png,images/swordfish.png,19,NA,NA,NA,no-,2,fish,Barbara,NA,NA,0,yes,"Your friend runs far ahead of you, and you see him in the distance:",prenominal,NA,31,fish,-,2,NA,NA,graduated_high_school,big,NA,english,female,NA,NA,You and your friend see  the following:,2,1571850801899,NA,NA,NA,NA,NA,NA,basic,custom_main_text1,Your friend says: <br/><b>That's a big one.</b>
653,What do you think your friend meant?,NA,It is big  relative to other,images/tree-parade-basic.png,images/redwood.png,19,NA,NA,NA,no-,2,trees,Barbara,NA,NA,0,yes,"Your friend runs far ahead of you, and you see him in the distance:",prenominal,NA,31,trees,-,2,NA,NA,graduated_high_school,big,NA,english,female,NA,NA,You and your friend see  the following:,3,1571850801899,NA,NA,NA,NA,NA,NA,basic,custom_main_text1,Your friend says: <br/><b>That's a big one.</b>
653,NA,hummingbird,NA,NA,NA,19,warmup/eagle.jpg,hummingbird,This is a,no-,2,birds,Barbara,NA,eagle,NA,yes,Please label the pictures below.,NA,NA,31,NA,-,NA,warmup/colibri.jpg,birds,graduated_high_school,NA,NA,english,female,NA,birds,NA,1,1571850801899,1,This is an,NA,These are both,eagle,NA,NA,warmup2,NA
653,NA,chiuaua,NA,NA,NA,19,warmup/doberman.png,chihuahua,This is a,no-,2,dogs,Barbara,NA,doberman,NA,yes,Please label the pictures below.,NA,NA,31,NA,-,NA,warmup/chihuahua.jpg,dogs,graduated_high_school,NA,NA,english,female,NA,dogs,NA,2,1571850801899,1,This is a,NA,These are both,dog,NA,NA,warmup2,NA
653,NA,chihuahua,NA,NA,NA,19,warmup/doberman.png,chihuahua,This is a,no-,2,dogs,Barbara,NA,doberman,NA,yes,Please label the pictures below.,NA,NA,31,NA,-,NA,warmup/chihuahua.jpg,dogs,graduated_high_school,NA,NA,english,female,NA,dogs,NA,2,1571850801899,2,This is a,NA,These are both,doberman,NA,NA,warmup2,NA
653,NA,dan,NA,NA,NA,19,warmup/sunflower.png,dandelion,This is a,no-,2,flowers,Barbara,NA,sunflower,NA,yes,Please label the pictures below.,NA,NA,31,NA,-,NA,warmup/dandelion.jpg,flowers,graduated_high_school,NA,NA,english,female,NA,flowers,NA,3,1571850801899,1,This is a,NA,These are both,sunflower,NA,NA,warmup2,NA
653,NA,dandelion,NA,NA,NA,19,warmup/sunflower.png,dandelion,This is a,no-,2,flowers,Barbara,NA,sunflower,NA,yes,Please label the pictures below.,NA,NA,31,NA,-,NA,warmup/dandelion.jpg,flowers,graduated_high_school,NA,NA,english,female,NA,flowers,NA,3,1571850801899,2,This is a,NA,These are both,sunflower,NA,NA,warmup2,NA
653,What do you think your friend meant?,NA,It is big  relative to other,images/flower-parade-basic.png,images/sunflower.png,19,NA,NA,NA,no-,2,flowers,Barbara,NA,NA,0,yes,"Your friend runs far ahead of you, and you see him in the distance:",prenominal,NA,31,flowers,-,2,NA,NA,graduated_high_school,big,NA,english,female,NA,NA,You and your friend see  the following:,1,1571850801899,NA,NA,NA,NA,NA,NA,basic,custom_main_text2,Your friend says: <br/><b>That's a big one.</b>
653,What do you think your friend meant?,NA,It is small  relative to other,images/dog-parade-chihuahua.png,images/chihuahua.png,19,NA,NA,NA,no-,2,dogs1,Barbara,NA,NA,1,yes,"Your friend runs far ahead of you, and you see him in the distance:",prenominal,NA,31,chihuahuas,-,2,NA,NA,graduated_high_school,small,NA,english,female,NA,NA,You and your friend see  the following:,2,1571850801899,NA,NA,NA,NA,NA,NA,congr,custom_main_text2,Your friend says: <br/><b>That's a small one.</b>
653,What do you think your friend meant?,NA,It is small  relative to other,images/bird-parade-hummingbird.png,images/hummingbird.png,19,NA,NA,NA,no-,2,birds,Barbara,NA,NA,1,yes,"Your friend runs far ahead of you, and you see him in the distance:",prenominal,NA,31,hummingbirds,-,2,NA,NA,graduated_high_school,small,NA,english,female,NA,NA,You and your friend see  the following:,3,1571850801899,NA,NA,NA,NA,NA,NA,congr,custom_main_text2,Your friend says: <br/><b>That's a small one.</b>
649,<i>What do you think Speaker A meant? </i>,NA,The Empire State Building is tall relative to other,NA,NA,19,NA,NA,NA,Nothing,2,NA,barbara,1,NA,NA,yes,NA,NA,"<b> Speaker A: ""The Empire State Building is tall.""</b>",31,the empire state building,Good,NA,NA,NA,graduated_college,NA,comp_class_warmup,English,male,NA,NA,In the main trials you will be asked to rephrase something a person said. The utterance will contain a word that is <i>relative</i> and your task is to figure out what it is relative to. <br /> <br /> For example: <br /><br />,1,1571850534778,1,NA,0.03,NA,NA,"buildings, skyscrapers, houses, constructions (choose one)",NA,comp_class_warmup,NA
649,<i>What do you think Speaker A meant? </i>,NA,The Empire State Building is tall relative to other,NA,NA,19,NA,NA,NA,Nothing,2,NA,barbara,1,NA,NA,yes,NA,NA,"<b> Speaker A: ""The Empire State Building is tall.""</b>",31,the empire state building,Good,NA,NA,NA,graduated_college,NA,comp_class_warmup,English,male,NA,NA,In the main trials you will be asked to rephrase something a person said. The utterance will contain a word that is <i>relative</i> and your task is to figure out what it is relative to. <br /> <br /> For example: <br /><br />,1,1571850534778,2,NA,0.03,NA,NA,"buildings, skyscrapers, houses, constructions (choose one)",NA,comp_class_warmup,NA
649,<i>What do you think Speaker A meant? </i>,NA,The Empire State Building is tall relative to other,NA,NA,19,NA,NA,NA,Nothing,2,NA,barbara,1,NA,NA,yes,NA,NA,"<b> Speaker A: ""The Empire State Building is tall.""</b>",31,the empire state building,Good,NA,NA,NA,graduated_college,NA,comp_class_warmup,English,male,NA,NA,In the main trials you will be asked to rephrase something a person said. The utterance will contain a word that is <i>relative</i> and your task is to figure out what it is relative to. <br /> <br /> For example: <br /><br />,1,1571850534778,3,NA,0.03,NA,NA,"buildings, skyscrapers, houses, constructions (choose one)",NA,comp_class_warmup,NA
649,<i>What do you think Speaker A meant? </i>,NA,The Empire State Building is tall relative to other,NA,NA,19,NA,NA,NA,Nothing,2,NA,barbara,1,NA,NA,yes,NA,NA,"<b> Speaker A: ""The Empire State Building is tall.""</b>",31,constructions,Good,NA,NA,NA,graduated_college,NA,comp_class_warmup,English,male,NA,NA,In the main trials you will be asked to rephrase something a person said. The utterance will contain a word that is <i>relative</i> and your task is to figure out what it is relative to. <br /> <br /> For example: <br /><br />,1,1571850534778,4,NA,0.03,NA,NA,"buildings, skyscrapers, houses, constructions (choose one)",NA,comp_class_warmup,NA
649,NA,dog,NA,NA,NA,19,warmup/doberman.png,chihuahua,This is a,Nothing,2,dogs,barbara,NA,doberman,NA,yes,Please label the pictures below.,NA,NA,31,NA,Good,NA,warmup/chihuahua.jpg,dog,graduated_college,NA,NA,English,male,NA,dogs,NA,1,1571850534778,1,This is a,0.03,These are both,dog,NA,NA,warmup1,NA
649,NA,dog,NA,NA,NA,19,warmup/doberman.png,chihuahua,This is a,Nothing,2,dogs,barbara,NA,doberman,NA,yes,Please label the pictures below.,NA,NA,31,NA,Good,NA,warmup/chihuahua.jpg,dog,graduated_college,NA,NA,English,male,NA,dogs,NA,1,1571850534778,2,This is a,0.03,These are both,dog,NA,NA,warmup1,NA
649,NA,dog,NA,NA,NA,19,warmup/doberman.png,chihuahua,This is a,Nothing,2,dogs,barbara,NA,doberman,NA,yes,Please label the pictures below.,NA,NA,31,NA,Good,NA,warmup/chihuahua.jpg,dogs,graduated_college,NA,NA,English,male,NA,dogs,NA,1,1571850534778,3,This is a,0.03,These are both,dog,NA,NA,warmup1,NA
649,NA,dog,NA,NA,NA,19,warmup/doberman.png,chihuahua,This is a,Nothing,2,dogs,barbara,NA,doberman,NA,yes,Please label the pictures below.,NA,NA,31,NA,Good,NA,warmup/chihuahua.jpg,dogs,graduated_college,NA,NA,English,male,NA,dogs,NA,1,1571850534778,4,This is a,0.03,These are both,dog,NA,NA,warmup1,NA
649,NA,chihuahua,NA,NA,NA,19,warmup/doberman.png,chihuahua,This is a,Nothing,2,dogs,barbara,NA,doberman,NA,yes,Please label the pictures below.,NA,NA,31,NA,Good,NA,warmup/chihuahua.jpg,dogs,graduated_college,NA,NA,English,male,NA,dogs,NA,1,1571850534778,5,This is a,0.03,These are both,doberman,NA,NA,warmup1,NA
649,NA,cucukoo bird,NA,NA,NA,19,warmup/eagle.jpg,hummingbird,This is a,Nothing,2,birds,barbara,NA,eagle,NA,yes,Please label the pictures below.,NA,NA,31,NA,Good,NA,warmup/colibri.jpg,bird,graduated_college,NA,NA,English,male,NA,birds,NA,2,1571850534778,1,This is an,0.03,These are both,Eagle,NA,NA,warmup1,NA
649,NA,hummingbird,NA,NA,NA,19,warmup/eagle.jpg,hummingbird,This is a,Nothing,2,birds,barbara,NA,eagle,NA,yes,Please label the pictures below.,NA,NA,31,NA,Good,NA,warmup/colibri.jpg,birds,graduated_college,NA,NA,English,male,NA,birds,NA,2,1571850534778,2,This is an,0.03,These are both,Eagle,NA,NA,warmup1,NA
649,NA,tree,NA,NA,NA,19,warmup/bonsai.jpg,redwood or sequoia (choose one),This is a,Nothing,2,trees,barbara,NA,bonsai,NA,yes,Please label the pictures below.,NA,NA,31,NA,Good,NA,warmup/sequoia.png,trees,graduated_college,NA,NA,English,male,NA,trees,NA,3,1571850534778,1,This is a,0.03,These are both,tree,NA,NA,warmup1,NA
649,NA,redwood,NA,NA,NA,19,warmup/bonsai.jpg,redwood or sequoia (choose one),This is a,Nothing,2,trees,barbara,NA,bonsai,NA,yes,Please label the pictures below.,NA,NA,31,NA,Good,NA,warmup/sequoia.png,trees,graduated_college,NA,NA,English,male,NA,trees,NA,3,1571850534778,2,This is a,0.03,These are both,bonsai,NA,NA,warmup1,NA
649,What do you think your friend meant?,NA,It is small  relative to other,images/bird-parade-hummingbird.png,images/hummingbird.png,19,NA,NA,NA,Nothing,2,birds,barbara,NA,NA,1,yes,"Your friend runs far ahead of you, and you see him in the distance:",prenominal,NA,31,humming bird,Good,2,NA,NA,graduated_college,small,NA,English,male,NA,NA,You and your friend see  the following:,1,1571850534778,NA,NA,0.03,NA,NA,NA,congr,custom_main_text1,Your friend says: <br/><b>That's a small one.</b>
649,What do you think your friend meant?,NA,It is small  relative to other,images/dog-parade-basic.png,images/chihuahua.png,19,NA,NA,NA,Nothing,2,dogs1,barbara,NA,NA,0,yes,"Your friend runs far ahead of you, and you see him in the distance:",prenominal,NA,31,dogs,Good,2,NA,NA,graduated_college,small,NA,English,male,NA,NA,You and your friend see  the following:,2,1571850534778,NA,NA,0.03,NA,NA,NA,basic,custom_main_text1,Your friend says: <br/><b>That's a small one.</b>
649,What do you think your friend meant?,NA,It is big  relative to other,images/tree-parade-basic.png,images/redwood.png,19,NA,NA,NA,Nothing,2,trees,barbara,NA,NA,0,yes,"Your friend runs far ahead of you, and you see him in the distance:",prenominal,NA,31,redwood,Good,2,NA,NA,graduated_college,big,NA,English,male,NA,NA,You and your friend see  the following:,3,1571850534778,NA,NA,0.03,NA,NA,NA,basic,custom_main_text1,Your friend says: <br/><b>That's a big one.</b>
649,NA,dog,NA,NA,NA,19,warmup/great-dane.jpg,pug,This is a,Nothing,2,dogs,barbara,NA,great dane,NA,yes,Please label the pictures below.,NA,NA,31,NA,Good,NA,warmup/pug.jpg,dogs,graduated_college,NA,NA,English,male,NA,dogs,NA,1,1571850534778,1,This is a,0.03,These are both,dog,NA,NA,warmup2,NA
649,NA,pug,NA,NA,NA,19,warmup/great-dane.jpg,pug,This is a,Nothing,2,dogs,barbara,NA,great dane,NA,yes,Please label the pictures below.,NA,NA,31,NA,Good,NA,warmup/pug.jpg,dogs,graduated_college,NA,NA,English,male,NA,dogs,NA,1,1571850534778,2,This is a,0.03,These are both,great dane,NA,NA,warmup2,NA
649,NA,fish,NA,NA,NA,19,warmup/goldfish.png,swordfish,This is a,Nothing,2,fish,barbara,NA,goldfish,NA,yes,Please label the pictures below.,NA,NA,31,NA,Good,NA,warmup/swordfish.jpg,fishes,graduated_college,NA,NA,English,male,NA,fish,NA,2,1571850534778,1,This is a,0.03,These are both,fish,NA,NA,warmup2,NA
649,NA,swordfish,NA,NA,NA,19,warmup/goldfish.png,swordfish,This is a,Nothing,2,fish,barbara,NA,goldfish,NA,yes,Please label the pictures below.,NA,NA,31,NA,Good,NA,warmup/swordfish.jpg,fish,graduated_college,NA,NA,English,male,NA,fish,NA,2,1571850534778,2,This is a,0.03,These are both,goldfish,NA,NA,warmup2,NA
649,NA,flower,NA,NA,NA,19,warmup/sunflower.png,dandelion,This is a,Nothing,2,flowers,barbara,NA,sunflower,NA,yes,Please label the pictures below.,NA,NA,31,NA,Good,NA,warmup/dandelion.jpg,flowers,graduated_college,NA,NA,English,male,NA,flowers,NA,3,1571850534778,1,This is a,0.03,These are both,sunflower,NA,NA,warmup2,NA
649,NA,dandelion,NA,NA,NA,19,warmup/sunflower.png,dandelion,This is a,Nothing,2,flowers,barbara,NA,sunflower,NA,yes,Please label the pictures below.,NA,NA,31,NA,Good,NA,warmup/dandelion.jpg,flowers,graduated_college,NA,NA,English,male,NA,flowers,NA,3,1571850534778,2,This is a,0.03,These are both,sunflower,NA,NA,warmup2,NA
649,What do you think your friend meant?,NA,It is big  relative to other,images/flower-parade-sunflower.png,images/sunflower.png,19,NA,NA,NA,Nothing,2,flowers,barbara,NA,NA,1,yes,"Your friend runs far ahead of you, and you see him in the distance:",prenominal,NA,31,sunflower,Good,2,NA,NA,graduated_college,big,NA,English,male,NA,NA,You and your friend see  the following:,1,1571850534778,NA,NA,0.03,NA,NA,NA,congr,custom_main_text2,Your friend says: <br/><b>That's a big one.</b>
649,What do you think your friend meant?,NA,It is small  relative to other,images/fish-parade-basic.png,images/goldfish.png,19,NA,NA,NA,Nothing,2,fish,barbara,NA,NA,0,yes,"Your friend runs far ahead of you, and you see him in the distance:",prenominal,NA,31,goldfish,Good,2,NA,NA,graduated_college,small,NA,English,male,NA,NA,You and your friend see  the following:,2,1571850534778,NA,NA,0.03,NA,NA,NA,basic,custom_main_text2,Your friend says: <br/><b>That's a small one.</b>
649,What do you think your friend meant?,NA,It is big  relative to other,images/dog-parade-great-dane.png,images/great-dane.png,19,NA,NA,NA,Nothing,2,dogs2,barbara,NA,NA,1,yes,"Your friend runs far ahead of you, and you see him in the distance:",prenominal,NA,31,great dog,Good,2,NA,NA,graduated_college,big,NA,English,male,NA,NA,You and your friend see  the following:,3,1571850534778,NA,NA,0.03,NA,NA,NA,congr,custom_main_text2,Your friend says: <br/><b>That's a big one.</b>
648,<i>What do you think Speaker A meant? </i>,NA,The Empire State Building is tall relative to other,NA,NA,19,NA,NA,NA,NA,2,NA,margaret,1,NA,NA,yes,NA,NA,"<b> Speaker A: ""The Empire State Building is tall.""</b>",26,buildings,NA,NA,NA,NA,some_college,NA,comp_class_warmup,english,female,NA,NA,In the main trials you will be asked to rephrase something a person said. The utterance will contain a word that is <i>relative</i> and your task is to figure out what it is relative to. <br /> <br /> For example: <br /><br />,1,1571850564482,1,NA,2,NA,NA,"buildings, skyscrapers, houses, constructions (choose one)",NA,comp_class_warmup,NA
648,NA,swordfish,NA,NA,NA,19,warmup/goldfish.png,swordfish,This is a,NA,2,fish,margaret,NA,goldfish,NA,yes,Please label the pictures below.,NA,NA,26,NA,NA,NA,warmup/swordfish.jpg,fish,some_college,NA,NA,english,female,NA,fish,NA,1,1571850564482,1,This is a,2,These are both,goldfish,NA,NA,warmup1,NA
