submission_id,question,response1,sentence_left,context_picture,experiment_id,picture2,correct1,question1,problems,enjoyment,item,botresponse,trials,correct2,pic_spec,understand,text,condition,sentence,age,response,comments,ref_spec,picture1,response3,education,target_size,name,languages,sex,RT,correct3,context,trial_number,startTime,attempts,question3,fairprice,question2,response2,correct,adj_cond,trial_name
583,<i>What do you think Speaker A meant? </i>,NA,The Empire State Building is tall relative to other,NA,12,NA,NA,NA,no problems,1,NA,Barbara,1,NA,NA,yes,NA,NA,"<b> Speaker A: ""The Empire State Building is tall.""</b>",48,buildings,no comments,NA,NA,NA,graduated_college,NA,comp_class_warmup,english,male,NA,NA,In the main trials you will be asked to rephrase something a person said. The utterance will contain a word that is <i>relative</i> and your task is to figure out what it is relative to. <br /> <br /> For example: <br /><br />,1,1571236955424,1,NA,1.25,NA,NA,"buildings, scyscrapers, houses, constructions (choose one)",NA,comp_class_warmup
583,NA,tree,NA,NA,12,warmup/bonsai.jpg,redwood or sequoia (choose one),This is a,no problems,1,trees,Barbara,NA,bonsai,NA,yes,Please label the pictures below.,NA,NA,48,NA,no comments,NA,warmup/sequoia.png,trees,graduated_college,NA,NA,english,male,NA,trees,NA,1,1571236955424,1,This is a,1.25,These are both,bonsai,NA,NA,warmup1
583,NA,tree,NA,NA,12,warmup/bonsai.jpg,redwood or sequoia (choose one),This is a,no problems,1,trees,Barbara,NA,bonsai,NA,yes,Please label the pictures below.,NA,NA,48,NA,no comments,NA,warmup/sequoia.png,trees,graduated_college,NA,NA,english,male,NA,trees,NA,1,1571236955424,2,This is a,1.25,These are both,tree,NA,NA,warmup1
583,NA,tree,NA,NA,12,warmup/bonsai.jpg,redwood or sequoia (choose one),This is a,no problems,1,trees,Barbara,NA,bonsai,NA,yes,Please label the pictures below.,NA,NA,48,NA,no comments,NA,warmup/sequoia.png,trees,graduated_college,NA,NA,english,male,NA,trees,NA,1,1571236955424,3,This is a,1.25,These are both,bonsai,NA,NA,warmup1
583,NA,tree,NA,NA,12,warmup/bonsai.jpg,redwood or sequoia (choose one),This is a,no problems,1,trees,Barbara,NA,bonsai,NA,yes,Please label the pictures below.,NA,NA,48,NA,no comments,NA,warmup/sequoia.png,trees,graduated_college,NA,NA,english,male,NA,trees,NA,1,1571236955424,4,This is a,1.25,These are both,bonsai,NA,NA,warmup1
583,NA,sequoia,NA,NA,12,warmup/bonsai.jpg,redwood or sequoia (choose one),This is a,no problems,1,trees,Barbara,NA,bonsai,NA,yes,Please label the pictures below.,NA,NA,48,NA,no comments,NA,warmup/sequoia.png,trees,graduated_college,NA,NA,english,male,NA,trees,NA,1,1571236955424,5,This is a,1.25,These are both,bonsai,NA,NA,warmup1
583,NA,hummingbird,NA,NA,12,warmup/eagle.jpg,hummingbird,This is a,no problems,1,birds,Barbara,NA,eagle,NA,yes,Please label the pictures below.,NA,NA,48,NA,no comments,NA,warmup/colibri.jpg,birds,graduated_college,NA,NA,english,male,NA,birds,NA,2,1571236955424,1,This is an,1.25,These are both,eagle,NA,NA,warmup1
583,NA,stingray,NA,NA,12,warmup/goldfish.png,swordfish,This is a,no problems,1,fish,Barbara,NA,goldfish,NA,yes,Please label the pictures below.,NA,NA,48,NA,no comments,NA,warmup/swordfish.jpg,fish,graduated_college,NA,NA,english,male,NA,fish,NA,3,1571236955424,1,This is a,1.25,These are both,goldfish,NA,NA,warmup1
583,NA,swordfish,NA,NA,12,warmup/goldfish.png,swordfish,This is a,no problems,1,fish,Barbara,NA,goldfish,NA,yes,Please label the pictures below.,NA,NA,48,NA,no comments,NA,warmup/swordfish.jpg,fish,graduated_college,NA,NA,english,male,NA,fish,NA,3,1571236955424,2,This is a,1.25,These are both,goldfish,NA,NA,warmup1
583,What do you think your friend meant?,NA,It is small relative to other,images/fish-parade-basic.png,12,NA,NA,NA,no problems,1,fish,Barbara,NA,NA,0,yes,"You and your friend see another goldfish (not pictured), and your friend says: <br/><b>That fish is small.</b>",predicative,NA,48,fish,no comments,0,NA,NA,graduated_college,small,NA,english,male,NA,NA,You and your friend see the following:,1,1571236955424,NA,NA,1.25,NA,NA,NA,basic,custom_main_text1
583,What do you think your friend meant?,NA,It is small relative to other,images/bird-parade-hummingbird.png,12,NA,NA,NA,no problems,1,birds,Barbara,NA,NA,1,yes,"You and your friend see another hummingbird (not pictured), and your friend says: <br/><b>That hummingbird is small.</b>",predicative,NA,48,hummingbirds,no comments,1,NA,NA,graduated_college,small,NA,english,male,NA,NA,You and your friend see the following:,2,1571236955424,NA,NA,1.25,NA,NA,NA,congr,custom_main_text1
583,What do you think your friend meant?,NA,It is big relative to other,images/tree-parade-basic.png,12,NA,NA,NA,no problems,1,trees,Barbara,NA,NA,0,yes,"You and your friend see another redwood (not pictured), and your friend says: <br/><b>That redwood is big.</b>",predicative,NA,48,redwoods,no comments,1,NA,NA,graduated_college,big,NA,english,male,NA,NA,You and your friend see the following:,3,1571236955424,NA,NA,1.25,NA,NA,NA,basic,custom_main_text1
583,NA,bulldog,NA,NA,12,warmup/great-dane.jpg,pug,This is a,no problems,1,dogs,Barbara,NA,great dane,NA,yes,Please label the pictures below.,NA,NA,48,NA,no comments,NA,warmup/pug.jpg,dogs,graduated_college,NA,NA,english,male,NA,dogs,NA,1,1571236955424,1,This is a,1.25,These are both,great dane,NA,NA,warmup2
583,NA,pug,NA,NA,12,warmup/great-dane.jpg,pug,This is a,no problems,1,dogs,Barbara,NA,great dane,NA,yes,Please label the pictures below.,NA,NA,48,NA,no comments,NA,warmup/pug.jpg,dogs,graduated_college,NA,NA,english,male,NA,dogs,NA,1,1571236955424,2,This is a,1.25,These are both,great dane,NA,NA,warmup2
583,NA,chouaw,NA,NA,12,warmup/doberman.png,chihuahua,This is a,no problems,1,dogs,Barbara,NA,doberman,NA,yes,Please label the pictures below.,NA,NA,48,NA,no comments,NA,warmup/chihuahua.jpg,dogs,graduated_college,NA,NA,english,male,NA,dogs,NA,2,1571236955424,1,This is a,1.25,These are both,doberman pinscer,NA,NA,warmup2
583,NA,chihuahua,NA,NA,12,warmup/doberman.png,chihuahua,This is a,no problems,1,dogs,Barbara,NA,doberman,NA,yes,Please label the pictures below.,NA,NA,48,NA,no comments,NA,warmup/chihuahua.jpg,dogs,graduated_college,NA,NA,english,male,NA,dogs,NA,2,1571236955424,2,This is a,1.25,These are both,doberman,NA,NA,warmup2
583,NA,dandylion,NA,NA,12,warmup/sunflower.png,dandelion,This is a,no problems,1,flowers,Barbara,NA,sunflower,NA,yes,Please label the pictures below.,NA,NA,48,NA,no comments,NA,warmup/dandelion.jpg,flowers,graduated_college,NA,NA,english,male,NA,flowers,NA,3,1571236955424,1,This is a,1.25,These are both,sunflower,NA,NA,warmup2
583,NA,dandelion,NA,NA,12,warmup/sunflower.png,dandelion,This is a,no problems,1,flowers,Barbara,NA,sunflower,NA,yes,Please label the pictures below.,NA,NA,48,NA,no comments,NA,warmup/dandelion.jpg,flowers,graduated_college,NA,NA,english,male,NA,flowers,NA,3,1571236955424,2,This is a,1.25,These are both,sunflower,NA,NA,warmup2
583,What do you think your friend meant?,NA,It is big relative to other,images/dog-parade-great-dane.png,12,NA,NA,NA,no problems,1,dogs2,Barbara,NA,NA,1,yes,"You and your friend see another great dane (not pictured), and your friend says: <br/><b>That one is big.</b>",predicative,NA,48,dogs,no comments,2,NA,NA,graduated_college,big,NA,english,male,NA,NA,You and your friend see the following:,1,1571236955424,NA,NA,1.25,NA,NA,NA,congr,custom_main_text2
583,What do you think your friend meant?,NA,It is big relative to other,images/flower-parade-basic.png,12,NA,NA,NA,no problems,1,flowers,Barbara,NA,NA,0,yes,"You and your friend see another sunflower (not pictured), and your friend says: <br/><b>That flower is big.</b>",predicative,NA,48,sunflowers,no comments,0,NA,NA,graduated_college,big,NA,english,male,NA,NA,You and your friend see the following:,2,1571236955424,NA,NA,1.25,NA,NA,NA,basic,custom_main_text2
583,What do you think your friend meant?,NA,It is small relative to other,images/dog-parade-chihuahua.png,12,NA,NA,NA,no problems,1,dogs1,Barbara,NA,NA,1,yes,"You and your friend see another chihuahua (not pictured), and your friend says: <br/><b>That one is small.</b>",predicative,NA,48,chihuahua,no comments,2,NA,NA,graduated_college,small,NA,english,male,NA,NA,You and your friend see the following:,3,1571236955424,NA,NA,1.25,NA,NA,NA,congr,custom_main_text2
582,<i>What do you think Speaker A meant? </i>,NA,The Empire State Building is tall relative to other,NA,12,NA,NA,NA,no,1,NA,mary,1,NA,NA,yes,NA,NA,"<b> Speaker A: ""The Empire State Building is tall.""</b>",46,buildings,NA,NA,NA,NA,higher_degree,NA,comp_class_warmup,english,female,NA,NA,In the main trials you will be asked to rephrase something a person said. The utterance will contain a word that is <i>relative</i> and your task is to figure out what it is relative to. <br /> <br /> For example: <br /><br />,1,1571237310821,1,NA,1,NA,NA,"buildings, scyscrapers, houses, constructions (choose one)",NA,comp_class_warmup
582,NA,dandylion,NA,NA,12,warmup/sunflower.png,dandelion,This is a,no,1,flowers,mary,NA,sunflower,NA,yes,Please label the pictures below.,NA,NA,46,NA,NA,NA,warmup/dandelion.jpg,flowers,higher_degree,NA,NA,english,female,NA,flowers,NA,1,1571237310821,1,This is a,1,These are both,sunflower,NA,NA,warmup1
582,NA,dandelion,NA,NA,12,warmup/sunflower.png,dandelion,This is a,no,1,flowers,mary,NA,sunflower,NA,yes,Please label the pictures below.,NA,NA,46,NA,NA,NA,warmup/dandelion.jpg,flowers,higher_degree,NA,NA,english,female,NA,flowers,NA,1,1571237310821,2,This is a,1,These are both,sunflower,NA,NA,warmup1
582,NA,tree,NA,NA,12,warmup/bonsai.jpg,redwood or sequoia (choose one),This is a,no,1,trees,mary,NA,bonsai,NA,yes,Please label the pictures below.,NA,NA,46,NA,NA,NA,warmup/sequoia.png,trees,higher_degree,NA,NA,english,female,NA,trees,NA,2,1571237310821,1,This is a,1,These are both,sapling,NA,NA,warmup1
582,NA,redwood,NA,NA,12,warmup/bonsai.jpg,redwood or sequoia (choose one),This is a,no,1,trees,mary,NA,bonsai,NA,yes,Please label the pictures below.,NA,NA,46,NA,NA,NA,warmup/sequoia.png,trees,higher_degree,NA,NA,english,female,NA,trees,NA,2,1571237310821,2,This is a,1,These are both,bonsai,NA,NA,warmup1
582,NA,chihuahua,NA,NA,12,warmup/doberman.png,chihuahua,This is a,no,1,dogs,mary,NA,doberman,NA,yes,Please label the pictures below.,NA,NA,46,NA,NA,NA,warmup/chihuahua.jpg,dogs,higher_degree,NA,NA,english,female,NA,dogs,NA,3,1571237310821,1,This is a,1,These are both,doberman,NA,NA,warmup1
582,What do you think your friend meant?,NA,It is big relative to other,images/tree-parade-basic.png,12,NA,NA,NA,no,1,trees,mary,NA,NA,0,yes,"You and your friend see another redwood (not pictured), and your friend says: <br/><b>That redwood is big.</b>",predicative,NA,46,trees,NA,1,NA,NA,higher_degree,big,NA,english,female,NA,NA,You and your friend see the following:,1,1571237310821,NA,NA,1,NA,NA,NA,basic,custom_main_text1
582,What do you think your friend meant?,NA,It is big relative to other,images/flower-parade-basic.png,12,NA,NA,NA,no,1,flowers,mary,NA,NA,0,yes,"You and your friend see another sunflower (not pictured), and your friend says: <br/><b>That one is big.</b>",predicative,NA,46,flowers,NA,2,NA,NA,higher_degree,big,NA,english,female,NA,NA,You and your friend see the following:,2,1571237310821,NA,NA,1,NA,NA,NA,basic,custom_main_text1
582,What do you think your friend meant?,NA,It is big relative to other,images/dog-parade-basic.png,12,NA,NA,NA,no,1,dogs1,mary,NA,NA,0,yes,"You and your friend see another doberman (not pictured), and your friend says: <br/><b>That dog is big.</b>",predicative,NA,46,dogs,NA,0,NA,NA,higher_degree,big,NA,english,female,NA,NA,You and your friend see the following:,3,1571237310821,NA,NA,1,NA,NA,NA,basic,custom_main_text1
582,NA,hummingbird,NA,NA,12,warmup/eagle.jpg,hummingbird,This is a,no,1,birds,mary,NA,eagle,NA,yes,Please label the pictures below.,NA,NA,46,NA,NA,NA,warmup/colibri.jpg,birds,higher_degree,NA,NA,english,female,NA,birds,NA,1,1571237310821,1,This is an,1,These are both,eagle,NA,NA,warmup2
582,NA,swordfish,NA,NA,12,warmup/goldfish.png,swordfish,This is a,no,1,fish,mary,NA,goldfish,NA,yes,Please label the pictures below.,NA,NA,46,NA,NA,NA,warmup/swordfish.jpg,fish,higher_degree,NA,NA,english,female,NA,fish,NA,2,1571237310821,1,This is a,1,These are both,goldfish,NA,NA,warmup2
582,NA,pug,NA,NA,12,warmup/great-dane.jpg,pug,This is a,no,1,dogs,mary,NA,great dane,NA,yes,Please label the pictures below.,NA,NA,46,NA,NA,NA,warmup/pug.jpg,dogs,higher_degree,NA,NA,english,female,NA,dogs,NA,3,1571237310821,1,This is a,1,These are both,large dog,NA,NA,warmup2
582,NA,pug,NA,NA,12,warmup/great-dane.jpg,pug,This is a,no,1,dogs,mary,NA,great dane,NA,yes,Please label the pictures below.,NA,NA,46,NA,NA,NA,warmup/pug.jpg,dogs,higher_degree,NA,NA,english,female,NA,dogs,NA,3,1571237310821,2,This is a,1,These are both,great dane,NA,NA,warmup2
582,What do you think your friend meant?,NA,It is small relative to other,images/bird-parade-hummingbird.png,12,NA,NA,NA,no,1,birds,mary,NA,NA,1,yes,"You and your friend see another hummingbird (not pictured), and your friend says: <br/><b>That one is small.</b>",predicative,NA,46,hummingbirds,NA,2,NA,NA,higher_degree,small,NA,english,female,NA,NA,You and your friend see the following:,1,1571237310821,NA,NA,1,NA,NA,NA,congr,custom_main_text2
582,What do you think your friend meant?,NA,It is small relative to other,images/dog-parade-pug.png,12,NA,NA,NA,no,1,dogs2,mary,NA,NA,1,yes,"You and your friend see another pug (not pictured), and your friend says: <br/><b>That pug is small.</b>",predicative,NA,46,pugs,NA,1,NA,NA,higher_degree,small,NA,english,female,NA,NA,You and your friend see the following:,2,1571237310821,NA,NA,1,NA,NA,NA,congr,custom_main_text2
582,What do you think your friend meant?,NA,It is small relative to other,images/fish-parade-goldfish.png,12,NA,NA,NA,no,1,fish,mary,NA,NA,1,yes,"You and your friend see another goldfish (not pictured), and your friend says: <br/><b>That fish is small.</b>",predicative,NA,46,goldfish,NA,0,NA,NA,higher_degree,small,NA,english,female,NA,NA,You and your friend see the following:,3,1571237310821,NA,NA,1,NA,NA,NA,congr,custom_main_text2
578,<i>What do you think Speaker A meant? </i>,NA,The Empire State Building is tall relative to other,NA,12,NA,NA,NA,There were NO problems or glitches.,2,NA,mary,1,NA,NA,yes,NA,NA,"<b> Speaker A: ""The Empire State Building is tall.""</b>",53,buildings,Thanks for the opportunity to participate and good luck with your research!,NA,NA,NA,higher_degree,NA,comp_class_warmup,English,male,NA,NA,In the main trials you will be asked to rephrase something a person said. The utterance will contain a word that is <i>relative</i> and your task is to figure out what it is relative to. <br /> <br /> For example: <br /><br />,1,1571236440708,1,NA,1,NA,NA,"buildings, scyscrapers, houses, constructions (choose one)",NA,comp_class_warmup
578,NA,dandelion,NA,NA,12,warmup/sunflower.png,dandelion,This is a,There were NO problems or glitches.,2,flowers,mary,NA,sunflower,NA,yes,Please label the pictures below.,NA,NA,53,NA,Thanks for the opportunity to participate and good luck with your research!,NA,warmup/dandelion.jpg,flowers,higher_degree,NA,NA,English,male,NA,flowers,NA,1,1571236440708,1,This is a,1,These are both,sunflower,NA,NA,warmup1
578,NA,hummingbird,NA,NA,12,warmup/eagle.jpg,hummingbird,This is a,There were NO problems or glitches.,2,birds,mary,NA,eagle,NA,yes,Please label the pictures below.,NA,NA,53,NA,Thanks for the opportunity to participate and good luck with your research!,NA,warmup/colibri.jpg,birds,higher_degree,NA,NA,English,male,NA,birds,NA,2,1571236440708,1,This is an,1,These are both,eagle,NA,NA,warmup1
578,NA,tree,NA,NA,12,warmup/bonsai.jpg,redwood or sequoia (choose one),This is a,There were NO problems or glitches.,2,trees,mary,NA,bonsai,NA,yes,Please label the pictures below.,NA,NA,53,NA,Thanks for the opportunity to participate and good luck with your research!,NA,warmup/sequoia.png,plants,higher_degree,NA,NA,English,male,NA,trees,NA,3,1571236440708,1,This is a,1,These are both,shrub,NA,NA,warmup1
578,NA,redwood,NA,NA,12,warmup/bonsai.jpg,redwood or sequoia (choose one),This is a,There were NO problems or glitches.,2,trees,mary,NA,bonsai,NA,yes,Please label the pictures below.,NA,NA,53,NA,Thanks for the opportunity to participate and good luck with your research!,NA,warmup/sequoia.png,trees,higher_degree,NA,NA,English,male,NA,trees,NA,3,1571236440708,2,This is a,1,These are both,bonsai,NA,NA,warmup1
578,What do you think your friend meant?,NA,It is small relative to other,images/bird-parade-hummingbird.png,12,NA,NA,NA,There were NO problems or glitches.,2,birds,mary,NA,NA,1,yes,"You and your friend see another hummingbird (not pictured), and your friend says: <br/><b>That bird is small.</b>",predicative,NA,53,birds,Thanks for the opportunity to participate and good luck with your research!,0,NA,NA,higher_degree,small,NA,English,male,NA,NA,You and your friend see the following:,1,1571236440708,NA,NA,1,NA,NA,NA,congr,custom_main_text1
578,What do you think your friend meant?,NA,It is big relative to other,images/tree-parade-redwood.png,12,NA,NA,NA,There were NO problems or glitches.,2,trees,mary,NA,NA,1,yes,"You and your friend see another redwood (not pictured), and your friend says: <br/><b>That one is big.</b>",predicative,NA,53,trees,Thanks for the opportunity to participate and good luck with your research!,2,NA,NA,higher_degree,big,NA,English,male,NA,NA,You and your friend see the following:,2,1571236440708,NA,NA,1,NA,NA,NA,congr,custom_main_text1
578,What do you think your friend meant?,NA,It is small relative to other,images/flower-parade-dandelion.png,12,NA,NA,NA,There were NO problems or glitches.,2,flowers,mary,NA,NA,1,yes,"You and your friend see another dandelion (not pictured), and your friend says: <br/><b>That dandelion is small.</b>",predicative,NA,53,plants,Thanks for the opportunity to participate and good luck with your research!,1,NA,NA,higher_degree,small,NA,English,male,NA,NA,You and your friend see the following:,3,1571236440708,NA,NA,1,NA,NA,NA,congr,custom_main_text1
578,NA,marlin,NA,NA,12,warmup/goldfish.png,swordfish,This is a,There were NO problems or glitches.,2,fish,mary,NA,goldfish,NA,yes,Please label the pictures below.,NA,NA,53,NA,Thanks for the opportunity to participate and good luck with your research!,NA,warmup/swordfish.jpg,fish,higher_degree,NA,NA,English,male,NA,fish,NA,1,1571236440708,1,This is a,1,These are both,goldfish,NA,NA,warmup2
578,NA,swordfish,NA,NA,12,warmup/goldfish.png,swordfish,This is a,There were NO problems or glitches.,2,fish,mary,NA,goldfish,NA,yes,Please label the pictures below.,NA,NA,53,NA,Thanks for the opportunity to participate and good luck with your research!,NA,warmup/swordfish.jpg,fish,higher_degree,NA,NA,English,male,NA,fish,NA,1,1571236440708,2,This is a,1,These are both,goldfish,NA,NA,warmup2
578,NA,chihuahua,NA,NA,12,warmup/doberman.png,chihuahua,This is a,There were NO problems or glitches.,2,dogs,mary,NA,doberman,NA,yes,Please label the pictures below.,NA,NA,53,NA,Thanks for the opportunity to participate and good luck with your research!,NA,warmup/chihuahua.jpg,dogs,higher_degree,NA,NA,English,male,NA,dogs,NA,2,1571236440708,1,This is a,1,These are both,great dane,NA,NA,warmup2
578,NA,chihuahua,NA,NA,12,warmup/doberman.png,chihuahua,This is a,There were NO problems or glitches.,2,dogs,mary,NA,doberman,NA,yes,Please label the pictures below.,NA,NA,53,NA,Thanks for the opportunity to participate and good luck with your research!,NA,warmup/chihuahua.jpg,dogs,higher_degree,NA,NA,English,male,NA,dogs,NA,2,1571236440708,2,This is a,1,These are both,doberman,NA,NA,warmup2
578,NA,pug,NA,NA,12,warmup/great-dane.jpg,pug,This is a,There were NO problems or glitches.,2,dogs,mary,NA,great dane,NA,yes,Please label the pictures below.,NA,NA,53,NA,Thanks for the opportunity to participate and good luck with your research!,NA,warmup/pug.jpg,dogs,higher_degree,NA,NA,English,male,NA,dogs,NA,3,1571236440708,1,This is a,1,These are both,labrador,NA,NA,warmup2
578,NA,pug,NA,NA,12,warmup/great-dane.jpg,pug,This is a,There were NO problems or glitches.,2,dogs,mary,NA,great dane,NA,yes,Please label the pictures below.,NA,NA,53,NA,Thanks for the opportunity to participate and good luck with your research!,NA,warmup/pug.jpg,dogs,higher_degree,NA,NA,English,male,NA,dogs,NA,3,1571236440708,2,This is a,1,These are both,great dane,NA,NA,warmup2
578,What do you think your friend meant?,NA,It is big relative to other,images/dog-parade-basic2.png,12,NA,NA,NA,There were NO problems or glitches.,2,dogs2,mary,NA,NA,0,yes,"You and your friend see another great dane (not pictured), and your friend says: <br/><b>That great dane is big.</b>",predicative,NA,53,dogs,Thanks for the opportunity to participate and good luck with your research!,1,NA,NA,higher_degree,big,NA,English,male,NA,NA,You and your friend see the following:,1,1571236440708,NA,NA,1,NA,NA,NA,basic,custom_main_text2
578,What do you think your friend meant?,NA,It is small relative to other,images/dog-parade-basic.png,12,NA,NA,NA,There were NO problems or glitches.,2,dogs1,mary,NA,NA,0,yes,"You and your friend see another chihuahua (not pictured), and your friend says: <br/><b>That one is small.</b>",predicative,NA,53,dogs,Thanks for the opportunity to participate and good luck with your research!,2,NA,NA,higher_degree,small,NA,English,male,NA,NA,You and your friend see the following:,2,1571236440708,NA,NA,1,NA,NA,NA,basic,custom_main_text2
578,What do you think your friend meant?,NA,It is big relative to other,images/fish-parade-basic.png,12,NA,NA,NA,There were NO problems or glitches.,2,fish,mary,NA,NA,0,yes,"You and your friend see another swordfish (not pictured), and your friend says: <br/><b>That fish is big.</b>",predicative,NA,53,fish,Thanks for the opportunity to participate and good luck with your research!,0,NA,NA,higher_degree,big,NA,English,male,NA,NA,You and your friend see the following:,3,1571236440708,NA,NA,1,NA,NA,NA,basic,custom_main_text2
576,<i>What do you think Speaker A meant? </i>,NA,The Empire State Building is tall relative to other,NA,12,NA,NA,NA,no,2,NA,sarah,1,NA,NA,yes,NA,NA,"<b> Speaker A: ""The Empire State Building is tall.""</b>",38,buildings,none,NA,NA,NA,graduated_college,NA,comp_class_warmup,english,male,NA,NA,In the main trials you will be asked to rephrase something a person said. The utterance will contain a word that is <i>relative</i> and your task is to figure out what it is relative to. <br /> <br /> For example: <br /><br />,1,1571236208281,1,NA,0.75,NA,NA,"buildings, scyscrapers, houses, constructions (choose one)",NA,comp_class_warmup
576,NA,small dog,NA,NA,12,warmup/doberman.png,chihuahua,This is a,no,2,dogs,sarah,NA,doberman,NA,yes,Please label the pictures below.,NA,NA,38,NA,none,NA,warmup/chihuahua.jpg,dogs,graduated_college,NA,NA,english,male,NA,dogs,NA,1,1571236208281,1,This is a,0.75,These are both,large dog,NA,NA,warmup1
576,NA,small dog,NA,NA,12,warmup/doberman.png,chihuahua,This is a,no,2,dogs,sarah,NA,doberman,NA,yes,Please label the pictures below.,NA,NA,38,NA,none,NA,warmup/chihuahua.jpg,dogs,graduated_college,NA,NA,english,male,NA,dogs,NA,1,1571236208281,2,This is a,0.75,These are both,large dog,NA,NA,warmup1
576,NA,chihuahua,NA,NA,12,warmup/doberman.png,chihuahua,This is a,no,2,dogs,sarah,NA,doberman,NA,yes,Please label the pictures below.,NA,NA,38,NA,none,NA,warmup/chihuahua.jpg,dogs,graduated_college,NA,NA,english,male,NA,dogs,NA,1,1571236208281,3,This is a,0.75,These are both,doberman,NA,NA,warmup1
576,NA,pug,NA,NA,12,warmup/great-dane.jpg,pug,This is a,no,2,dogs,sarah,NA,great dane,NA,yes,Please label the pictures below.,NA,NA,38,NA,none,NA,warmup/pug.jpg,dogs,graduated_college,NA,NA,english,male,NA,dogs,NA,2,1571236208281,1,This is a,0.75,These are both,hound,NA,NA,warmup1
576,NA,pug,NA,NA,12,warmup/great-dane.jpg,pug,This is a,no,2,dogs,sarah,NA,great dane,NA,yes,Please label the pictures below.,NA,NA,38,NA,none,NA,warmup/pug.jpg,dogs,graduated_college,NA,NA,english,male,NA,dogs,NA,2,1571236208281,2,This is a,0.75,These are both,great dane,NA,NA,warmup1
576,NA,marlin,NA,NA,12,warmup/goldfish.png,swordfish,This is a,no,2,fish,sarah,NA,goldfish,NA,yes,Please label the pictures below.,NA,NA,38,NA,none,NA,warmup/swordfish.jpg,fish,graduated_college,NA,NA,english,male,NA,fish,NA,3,1571236208281,1,This is a,0.75,These are both,goldfish,NA,NA,warmup1
576,NA,swordfish,NA,NA,12,warmup/goldfish.png,swordfish,This is a,no,2,fish,sarah,NA,goldfish,NA,yes,Please label the pictures below.,NA,NA,38,NA,none,NA,warmup/swordfish.jpg,fish,graduated_college,NA,NA,english,male,NA,fish,NA,3,1571236208281,2,This is a,0.75,These are both,goldfish,NA,NA,warmup1
576,What do you think your friend meant?,NA,It is big relative to other,images/fish-parade-basic.png,12,NA,NA,NA,no,2,fish,sarah,NA,NA,0,yes,"You and your friend see another swordfish (not pictured), and your friend says: <br/><b>That fish is big.</b>",predicative,NA,38,fish,none,0,NA,NA,graduated_college,big,NA,english,male,NA,NA,You and your friend see the following:,1,1571236208281,NA,NA,0.75,NA,NA,NA,basic,custom_main_text1
576,What do you think your friend meant?,NA,It is small relative to other,images/dog-parade-pug.png,12,NA,NA,NA,no,2,dogs2,sarah,NA,NA,1,yes,"You and your friend see another pug (not pictured), and your friend says: <br/><b>That one is small.</b>",predicative,NA,38,dogs,none,2,NA,NA,graduated_college,small,NA,english,male,NA,NA,You and your friend see the following:,2,1571236208281,NA,NA,0.75,NA,NA,NA,congr,custom_main_text1
576,What do you think your friend meant?,NA,It is big relative to other,images/dog-parade-doberman.png,12,NA,NA,NA,no,2,dogs1,sarah,NA,NA,1,yes,"You and your friend see another doberman (not pictured), and your friend says: <br/><b>That dog is big.</b>",predicative,NA,38,dogs,none,0,NA,NA,graduated_college,big,NA,english,male,NA,NA,You and your friend see the following:,3,1571236208281,NA,NA,0.75,NA,NA,NA,congr,custom_main_text1
576,NA,hummingbird,NA,NA,12,warmup/eagle.jpg,hummingbird,This is a,no,2,birds,sarah,NA,eagle,NA,yes,Please label the pictures below.,NA,NA,38,NA,none,NA,warmup/colibri.jpg,birds,graduated_college,NA,NA,english,male,NA,birds,NA,1,1571236208281,1,This is an,0.75,These are both,eagle,NA,NA,warmup2
576,NA,sequoia,NA,NA,12,warmup/bonsai.jpg,redwood or sequoia (choose one),This is a,no,2,trees,sarah,NA,bonsai,NA,yes,Please label the pictures below.,NA,NA,38,NA,none,NA,warmup/sequoia.png,trees,graduated_college,NA,NA,english,male,NA,trees,NA,2,1571236208281,1,This is a,0.75,These are both,bonsai,NA,NA,warmup2
576,NA,dandelion,NA,NA,12,warmup/sunflower.png,dandelion,This is a,no,2,flowers,sarah,NA,sunflower,NA,yes,Please label the pictures below.,NA,NA,38,NA,none,NA,warmup/dandelion.jpg,flowers,graduated_college,NA,NA,english,male,NA,flowers,NA,3,1571236208281,1,This is a,0.75,These are both,daisy,NA,NA,warmup2
576,NA,dandelion,NA,NA,12,warmup/sunflower.png,dandelion,This is a,no,2,flowers,sarah,NA,sunflower,NA,yes,Please label the pictures below.,NA,NA,38,NA,none,NA,warmup/dandelion.jpg,flowers,graduated_college,NA,NA,english,male,NA,flowers,NA,3,1571236208281,2,This is a,0.75,These are both,sunflower,NA,NA,warmup2
576,What do you think your friend meant?,NA,It is small relative to other,images/bird-parade-hummingbird.png,12,NA,NA,NA,no,2,birds,sarah,NA,NA,1,yes,"You and your friend see another hummingbird (not pictured), and your friend says: <br/><b>That one is small.</b>",predicative,NA,38,hummingbirds,none,2,NA,NA,graduated_college,small,NA,english,male,NA,NA,You and your friend see the following:,1,1571236208281,NA,NA,0.75,NA,NA,NA,congr,custom_main_text2
576,What do you think your friend meant?,NA,It is small relative to other,images/flower-parade-basic.png,12,NA,NA,NA,no,2,flowers,sarah,NA,NA,0,yes,"You and your friend see another dandelion (not pictured), and your friend says: <br/><b>That dandelion is small.</b>",predicative,NA,38,dandelions,none,1,NA,NA,graduated_college,small,NA,english,male,NA,NA,You and your friend see the following:,2,1571236208281,NA,NA,0.75,NA,NA,NA,basic,custom_main_text2
576,What do you think your friend meant?,NA,It is big relative to other,images/tree-parade-basic.png,12,NA,NA,NA,no,2,trees,sarah,NA,NA,0,yes,"You and your friend see another redwood (not pictured), and your friend says: <br/><b>That redwood is big.</b>",predicative,NA,38,redwoods,none,1,NA,NA,graduated_college,big,NA,english,male,NA,NA,You and your friend see the following:,3,1571236208281,NA,NA,0.75,NA,NA,NA,basic,custom_main_text2
575,<i>What do you think Speaker A meant? </i>,NA,The Empire State Building is tall relative to other,NA,12,NA,NA,NA,None.,2,NA,sarah,1,NA,NA,yes,NA,NA,"<b> Speaker A: ""The Empire State Building is tall.""</b>",45,buildings,None.,NA,NA,NA,graduated_college,NA,comp_class_warmup,English,male,NA,NA,In the main trials you will be asked to rephrase something a person said. The utterance will contain a word that is <i>relative</i> and your task is to figure out what it is relative to. <br /> <br /> For example: <br /><br />,1,1571235591864,1,NA,1,NA,NA,"buildings, scyscrapers, houses, constructions (choose one)",NA,comp_class_warmup
575,NA,tree,NA,NA,12,warmup/bonsai.jpg,redwood or sequoia (choose one),This is a,None.,2,trees,sarah,NA,bonsai,NA,yes,Please label the pictures below.,NA,NA,45,NA,None.,NA,warmup/sequoia.png,trees,graduated_college,NA,NA,English,male,NA,trees,NA,1,1571235591864,1,This is a,1,These are both,tree,NA,NA,warmup1
575,NA,redwood,NA,NA,12,warmup/bonsai.jpg,redwood or sequoia (choose one),This is a,None.,2,trees,sarah,NA,bonsai,NA,yes,Please label the pictures below.,NA,NA,45,NA,None.,NA,warmup/sequoia.png,trees,graduated_college,NA,NA,English,male,NA,trees,NA,1,1571235591864,2,This is a,1,These are both,juniper,NA,NA,warmup1
575,NA,redwood,NA,NA,12,warmup/bonsai.jpg,redwood or sequoia (choose one),This is a,None.,2,trees,sarah,NA,bonsai,NA,yes,Please label the pictures below.,NA,NA,45,NA,None.,NA,warmup/sequoia.png,trees,graduated_college,NA,NA,English,male,NA,trees,NA,1,1571235591864,3,This is a,1,These are both,bonsai,NA,NA,warmup1
575,NA,dandelion,NA,NA,12,warmup/sunflower.png,dandelion,This is a,None.,2,flowers,sarah,NA,sunflower,NA,yes,Please label the pictures below.,NA,NA,45,NA,None.,NA,warmup/dandelion.jpg,flowers,graduated_college,NA,NA,English,male,NA,flowers,NA,2,1571235591864,1,This is a,1,These are both,sunflower,NA,NA,warmup1
575,NA,swordfish,NA,NA,12,warmup/goldfish.png,swordfish,This is a,None.,2,fish,sarah,NA,goldfish,NA,yes,Please label the pictures below.,NA,NA,45,NA,None.,NA,warmup/swordfish.jpg,fish,graduated_college,NA,NA,English,male,NA,fish,NA,3,1571235591864,1,This is a,1,These are both,goldfish,NA,NA,warmup1
575,What do you think your friend meant?,NA,It is small relative to other,images/flower-parade-dandelion.png,12,NA,NA,NA,None.,2,flowers,sarah,NA,NA,1,yes,"You and your friend see another dandelion (not pictured), and your friend says: <br/><b>That flower is small.</b>",predicative,NA,45,dandelion,None.,0,NA,NA,graduated_college,small,NA,English,male,NA,NA,You and your friend see the following:,1,1571235591864,NA,NA,1,NA,NA,NA,congr,custom_main_text1
575,What do you think your friend meant?,NA,It is big relative to other,images/tree-parade-basic.png,12,NA,NA,NA,None.,2,trees,sarah,NA,NA,0,yes,"You and your friend see another redwood (not pictured), and your friend says: <br/><b>That one is big.</b>",predicative,NA,45,redwoods,None.,2,NA,NA,graduated_college,big,NA,English,male,NA,NA,You and your friend see the following:,2,1571235591864,NA,NA,1,NA,NA,NA,basic,custom_main_text1
575,What do you think your friend meant?,NA,It is small relative to other,images/fish-parade-goldfish.png,12,NA,NA,NA,None.,2,fish,sarah,NA,NA,1,yes,"You and your friend see another goldfish (not pictured), and your friend says: <br/><b>That fish is small.</b>",predicative,NA,45,goldfish,None.,0,NA,NA,graduated_college,small,NA,English,male,NA,NA,You and your friend see the following:,3,1571235591864,NA,NA,1,NA,NA,NA,congr,custom_main_text1
575,NA,hummingbird,NA,NA,12,warmup/eagle.jpg,hummingbird,This is a,None.,2,birds,sarah,NA,eagle,NA,yes,Please label the pictures below.,NA,NA,45,NA,None.,NA,warmup/colibri.jpg,birds,graduated_college,NA,NA,English,male,NA,birds,NA,1,1571235591864,1,This is an,1,These are both,eagle,NA,NA,warmup2
575,NA,pug,NA,NA,12,warmup/great-dane.jpg,pug,This is a,None.,2,dogs,sarah,NA,great dane,NA,yes,Please label the pictures below.,NA,NA,45,NA,None.,NA,warmup/pug.jpg,dogs,graduated_college,NA,NA,English,male,NA,dogs,NA,2,1571235591864,1,This is a,1,These are both,great dane,NA,NA,warmup2
575,NA,chihuahua,NA,NA,12,warmup/doberman.png,chihuahua,This is a,None.,2,dogs,sarah,NA,doberman,NA,yes,Please label the pictures below.,NA,NA,45,NA,None.,NA,warmup/chihuahua.jpg,dogs,graduated_college,NA,NA,English,male,NA,dogs,NA,3,1571235591864,1,This is a,1,These are both,doberman pincer,NA,NA,warmup2
575,NA,chihuahua,NA,NA,12,warmup/doberman.png,chihuahua,This is a,None.,2,dogs,sarah,NA,doberman,NA,yes,Please label the pictures below.,NA,NA,45,NA,None.,NA,warmup/chihuahua.jpg,dogs,graduated_college,NA,NA,English,male,NA,dogs,NA,3,1571235591864,2,This is a,1,These are both,doberman,NA,NA,warmup2
575,What do you think your friend meant?,NA,It is big relative to other,images/dog-parade-basic2.png,12,NA,NA,NA,None.,2,dogs2,sarah,NA,NA,0,yes,"You and your friend see another great dane (not pictured), and your friend says: <br/><b>That one is big.</b>",predicative,NA,45,dogs,None.,2,NA,NA,graduated_college,big,NA,English,male,NA,NA,You and your friend see the following:,1,1571235591864,NA,NA,1,NA,NA,NA,basic,custom_main_text2
575,What do you think your friend meant?,NA,It is small relative to other,images/bird-parade-hummingbird.png,12,NA,NA,NA,None.,2,birds,sarah,NA,NA,1,yes,"You and your friend see another hummingbird (not pictured), and your friend says: <br/><b>That hummingbird is small.</b>",predicative,NA,45,hummingbirds,None.,1,NA,NA,graduated_college,small,NA,English,male,NA,NA,You and your friend see the following:,2,1571235591864,NA,NA,1,NA,NA,NA,congr,custom_main_text2
575,What do you think your friend meant?,NA,It is big relative to other,images/dog-parade-basic.png,12,NA,NA,NA,None.,2,dogs1,sarah,NA,NA,0,yes,"You and your friend see another doberman (not pictured), and your friend says: <br/><b>That doberman is big.</b>",predicative,NA,45,dobermans,None.,1,NA,NA,graduated_college,big,NA,English,male,NA,NA,You and your friend see the following:,3,1571235591864,NA,NA,1,NA,NA,NA,basic,custom_main_text2
574,<i>What do you think Speaker A meant? </i>,NA,The Empire State Building is tall relative to other,NA,12,NA,NA,NA,no,2,NA,sarah,1,NA,NA,yes,NA,NA,"<b> Speaker A: ""The Empire State Building is tall.""</b>",22,buildings,Great survey. Would love to do more!,NA,NA,NA,graduated_college,NA,comp_class_warmup,english,male,NA,NA,In the main trials you will be asked to rephrase something a person said. The utterance will contain a word that is <i>relative</i> and your task is to figure out what it is relative to. <br /> <br /> For example: <br /><br />,1,1571235798422,1,NA,1.25,NA,NA,"buildings, scyscrapers, houses, constructions (choose one)",NA,comp_class_warmup
574,NA,swordfish,NA,NA,12,warmup/goldfish.png,swordfish,This is a,no,2,fish,sarah,NA,goldfish,NA,yes,Please label the pictures below.,NA,NA,22,NA,Great survey. Would love to do more!,NA,warmup/swordfish.jpg,fish,graduated_college,NA,NA,english,male,NA,fish,NA,1,1571235798422,1,This is a,1.25,These are both,goldfish,NA,NA,warmup1
574,NA,tree,NA,NA,12,warmup/bonsai.jpg,redwood or sequoia (choose one),This is a,no,2,trees,sarah,NA,bonsai,NA,yes,Please label the pictures below.,NA,NA,22,NA,Great survey. Would love to do more!,NA,warmup/sequoia.png,plants,graduated_college,NA,NA,english,male,NA,trees,NA,2,1571235798422,1,This is a,1.25,These are both,small plant,NA,NA,warmup1
574,NA,redwood,NA,NA,12,warmup/bonsai.jpg,redwood or sequoia (choose one),This is a,no,2,trees,sarah,NA,bonsai,NA,yes,Please label the pictures below.,NA,NA,22,NA,Great survey. Would love to do more!,NA,warmup/sequoia.png,trees,graduated_college,NA,NA,english,male,NA,trees,NA,2,1571235798422,2,This is a,1.25,These are both,bonsai,NA,NA,warmup1
574,NA,dandelion,NA,NA,12,warmup/sunflower.png,dandelion,This is a,no,2,flowers,sarah,NA,sunflower,NA,yes,Please label the pictures below.,NA,NA,22,NA,Great survey. Would love to do more!,NA,warmup/dandelion.jpg,flowers,graduated_college,NA,NA,english,male,NA,flowers,NA,3,1571235798422,1,This is a,1.25,These are both,sunflower,NA,NA,warmup1
574,What do you think your friend meant?,NA,It is small relative to other,images/fish-parade-goldfish.png,12,NA,NA,NA,no,2,fish,sarah,NA,NA,1,yes,"You and your friend see another goldfish (not pictured), and your friend says: <br/><b>That one is small.</b>",predicative,NA,22,goldfish,Great survey. Would love to do more!,2,NA,NA,graduated_college,small,NA,english,male,NA,NA,You and your friend see the following:,1,1571235798422,NA,NA,1.25,NA,NA,NA,congr,custom_main_text1
574,What do you think your friend meant?,NA,It is small relative to other,images/flower-parade-dandelion.png,12,NA,NA,NA,no,2,flowers,sarah,NA,NA,1,yes,"You and your friend see another dandelion (not pictured), and your friend says: <br/><b>That dandelion is small.</b>",predicative,NA,22,dandelions,Great survey. Would love to do more!,1,NA,NA,graduated_college,small,NA,english,male,NA,NA,You and your friend see the following:,2,1571235798422,NA,NA,1.25,NA,NA,NA,congr,custom_main_text1
574,What do you think your friend meant?,NA,It is small relative to other,images/tree-parade-basic.png,12,NA,NA,NA,no,2,trees,sarah,NA,NA,0,yes,"You and your friend see another bonsai (not pictured), and your friend says: <br/><b>That tree is small.</b>",predicative,NA,22,trees,Great survey. Would love to do more!,0,NA,NA,graduated_college,small,NA,english,male,NA,NA,You and your friend see the following:,3,1571235798422,NA,NA,1.25,NA,NA,NA,basic,custom_main_text1
574,NA,hummingbird,NA,NA,12,warmup/eagle.jpg,hummingbird,This is a,no,2,birds,sarah,NA,eagle,NA,yes,Please label the pictures below.,NA,NA,22,NA,Great survey. Would love to do more!,NA,warmup/colibri.jpg,birds,graduated_college,NA,NA,english,male,NA,birds,NA,1,1571235798422,1,This is an,1.25,These are both,bald eagle,NA,NA,warmup2
574,NA,hummingbird,NA,NA,12,warmup/eagle.jpg,hummingbird,This is a,no,2,birds,sarah,NA,eagle,NA,yes,Please label the pictures below.,NA,NA,22,NA,Great survey. Would love to do more!,NA,warmup/colibri.jpg,birds,graduated_college,NA,NA,english,male,NA,birds,NA,1,1571235798422,2,This is an,1.25,These are both,eagle,NA,NA,warmup2
574,NA,pug,NA,NA,12,warmup/great-dane.jpg,pug,This is a,no,2,dogs,sarah,NA,great dane,NA,yes,Please label the pictures below.,NA,NA,22,NA,Great survey. Would love to do more!,NA,warmup/pug.jpg,dogs,graduated_college,NA,NA,english,male,NA,dogs,NA,2,1571235798422,1,This is a,1.25,These are both,gdgd,NA,NA,warmup2
574,NA,pug,NA,NA,12,warmup/great-dane.jpg,pug,This is a,no,2,dogs,sarah,NA,great dane,NA,yes,Please label the pictures below.,NA,NA,22,NA,Great survey. Would love to do more!,NA,warmup/pug.jpg,dogs,graduated_college,NA,NA,english,male,NA,dogs,NA,2,1571235798422,2,This is a,1.25,These are both,great dane,NA,NA,warmup2
574,NA,chiuahuahua,NA,NA,12,warmup/doberman.png,chihuahua,This is a,no,2,dogs,sarah,NA,doberman,NA,yes,Please label the pictures below.,NA,NA,22,NA,Great survey. Would love to do more!,NA,warmup/chihuahua.jpg,dogs,graduated_college,NA,NA,english,male,NA,dogs,NA,3,1571235798422,1,This is a,1.25,These are both,great dane,NA,NA,warmup2
574,NA,chihuahua,NA,NA,12,warmup/doberman.png,chihuahua,This is a,no,2,dogs,sarah,NA,doberman,NA,yes,Please label the pictures below.,NA,NA,22,NA,Great survey. Would love to do more!,NA,warmup/chihuahua.jpg,dogs,graduated_college,NA,NA,english,male,NA,dogs,NA,3,1571235798422,2,This is a,1.25,These are both,doberman,NA,NA,warmup2
574,What do you think your friend meant?,NA,It is big relative to other,images/bird-parade-basic.png,12,NA,NA,NA,no,2,birds,sarah,NA,NA,0,yes,"You and your friend see another eagle (not pictured), and your friend says: <br/><b>That one is big.</b>",predicative,NA,22,birds,Great survey. Would love to do more!,2,NA,NA,graduated_college,big,NA,english,male,NA,NA,You and your friend see the following:,1,1571235798422,NA,NA,1.25,NA,NA,NA,basic,custom_main_text2
574,What do you think your friend meant?,NA,It is big relative to other,images/dog-parade-basic2.png,12,NA,NA,NA,no,2,dogs2,sarah,NA,NA,0,yes,"You and your friend see another great dane (not pictured), and your friend says: <br/><b>That great dane is big.</b>",predicative,NA,22,dogs,Great survey. Would love to do more!,1,NA,NA,graduated_college,big,NA,english,male,NA,NA,You and your friend see the following:,2,1571235798422,NA,NA,1.25,NA,NA,NA,basic,custom_main_text2
574,What do you think your friend meant?,NA,It is big relative to other,images/dog-parade-doberman.png,12,NA,NA,NA,no,2,dogs1,sarah,NA,NA,1,yes,"You and your friend see another doberman (not pictured), and your friend says: <br/><b>That dog is big.</b>",predicative,NA,22,doberman,Great survey. Would love to do more!,0,NA,NA,graduated_college,big,NA,english,male,NA,NA,You and your friend see the following:,3,1571235798422,NA,NA,1.25,NA,NA,NA,congr,custom_main_text2
572,<i>What do you think Speaker A meant? </i>,NA,The Empire State Building is tall relative to other,NA,12,NA,NA,NA,nope,1,NA,sarah,1,NA,NA,NA,NA,NA,"<b> Speaker A: ""The Empire State Building is tall.""</b>",NA,buildings,thanks!,NA,NA,NA,some_college,NA,comp_class_warmup,english,female,NA,NA,In the main trials you will be asked to rephrase something a person said. The utterance will contain a word that is <i>relative</i> and your task is to figure out what it is relative to. <br /> <br /> For example: <br /><br />,1,1571235806775,1,NA,1,NA,NA,"buildings, scyscrapers, houses, constructions (choose one)",NA,comp_class_warmup
572,NA,chiwawa,NA,NA,12,warmup/doberman.png,chihuahua,This is a,nope,1,dogs,sarah,NA,doberman,NA,NA,Please label the pictures below.,NA,NA,NA,NA,thanks!,NA,warmup/chihuahua.jpg,dogs,some_college,NA,NA,english,female,NA,dogs,NA,1,1571235806775,1,This is a,1,These are both,doberman,NA,NA,warmup1
572,NA,chihuahua,NA,NA,12,warmup/doberman.png,chihuahua,This is a,nope,1,dogs,sarah,NA,doberman,NA,NA,Please label the pictures below.,NA,NA,NA,NA,thanks!,NA,warmup/chihuahua.jpg,dogs,some_college,NA,NA,english,female,NA,dogs,NA,1,1571235806775,2,This is a,1,These are both,doberman,NA,NA,warmup1
572,NA,dandylion,NA,NA,12,warmup/sunflower.png,dandelion,This is a,nope,1,flowers,sarah,NA,sunflower,NA,NA,Please label the pictures below.,NA,NA,NA,NA,thanks!,NA,warmup/dandelion.jpg,flowers,some_college,NA,NA,english,female,NA,flowers,NA,2,1571235806775,1,This is a,1,These are both,sunflower,NA,NA,warmup1
572,NA,dandelion,NA,NA,12,warmup/sunflower.png,dandelion,This is a,nope,1,flowers,sarah,NA,sunflower,NA,NA,Please label the pictures below.,NA,NA,NA,NA,thanks!,NA,warmup/dandelion.jpg,flowers,some_college,NA,NA,english,female,NA,flowers,NA,2,1571235806775,2,This is a,1,These are both,sunflower,NA,NA,warmup1
572,NA,oak,NA,NA,12,warmup/bonsai.jpg,redwood or sequoia (choose one),This is a,nope,1,trees,sarah,NA,bonsai,NA,NA,Please label the pictures below.,NA,NA,NA,NA,thanks!,NA,warmup/sequoia.png,trees,some_college,NA,NA,english,female,NA,trees,NA,3,1571235806775,1,This is a,1,These are both,bonzai,NA,NA,warmup1
572,NA,redwood,NA,NA,12,warmup/bonsai.jpg,redwood or sequoia (choose one),This is a,nope,1,trees,sarah,NA,bonsai,NA,NA,Please label the pictures below.,NA,NA,NA,NA,thanks!,NA,warmup/sequoia.png,trees,some_college,NA,NA,english,female,NA,trees,NA,3,1571235806775,2,This is a,1,These are both,bonsai,NA,NA,warmup1
572,What do you think your friend meant?,NA,It is small relative to other,images/dog-parade-basic.png,12,NA,NA,NA,nope,1,dogs1,sarah,NA,NA,0,NA,"You and your friend see another chihuahua (not pictured), and your friend says: <br/><b>That chihuahua is small.</b>",predicative,NA,NA,dogs,thanks!,1,NA,NA,some_college,small,NA,english,female,NA,NA,You and your friend see the following:,1,1571235806775,NA,NA,1,NA,NA,NA,basic,custom_main_text1
572,What do you think your friend meant?,NA,It is small relative to other,images/flower-parade-basic.png,12,NA,NA,NA,nope,1,flowers,sarah,NA,NA,0,NA,"You and your friend see another dandelion (not pictured), and your friend says: <br/><b>That flower is small.</b>",predicative,NA,NA,flowers,thanks!,0,NA,NA,some_college,small,NA,english,female,NA,NA,You and your friend see the following:,2,1571235806775,NA,NA,1,NA,NA,NA,basic,custom_main_text1
572,What do you think your friend meant?,NA,It is big relative to other,images/tree-parade-redwood.png,12,NA,NA,NA,nope,1,trees,sarah,NA,NA,1,NA,"You and your friend see another redwood (not pictured), and your friend says: <br/><b>That one is big.</b>",predicative,NA,NA,trees,thanks!,2,NA,NA,some_college,big,NA,english,female,NA,NA,You and your friend see the following:,3,1571235806775,NA,NA,1,NA,NA,NA,congr,custom_main_text1
572,NA,swordfish,NA,NA,12,warmup/goldfish.png,swordfish,This is a,nope,1,fish,sarah,NA,goldfish,NA,NA,Please label the pictures below.,NA,NA,NA,NA,thanks!,NA,warmup/swordfish.jpg,fish,some_college,NA,NA,english,female,NA,fish,NA,1,1571235806775,1,This is a,1,These are both,goldfish,NA,NA,warmup2
572,NA,pug,NA,NA,12,warmup/great-dane.jpg,pug,This is a,nope,1,dogs,sarah,NA,great dane,NA,NA,Please label the pictures below.,NA,NA,NA,NA,thanks!,NA,warmup/pug.jpg,dog,some_college,NA,NA,english,female,NA,dogs,NA,2,1571235806775,1,This is a,1,These are both,lab,NA,NA,warmup2
572,NA,pug,NA,NA,12,warmup/great-dane.jpg,pug,This is a,nope,1,dogs,sarah,NA,great dane,NA,NA,Please label the pictures below.,NA,NA,NA,NA,thanks!,NA,warmup/pug.jpg,dog,some_college,NA,NA,english,female,NA,dogs,NA,2,1571235806775,2,This is a,1,These are both,great dane,NA,NA,warmup2
572,NA,pug,NA,NA,12,warmup/great-dane.jpg,pug,This is a,nope,1,dogs,sarah,NA,great dane,NA,NA,Please label the pictures below.,NA,NA,NA,NA,thanks!,NA,warmup/pug.jpg,dog,some_college,NA,NA,english,female,NA,dogs,NA,2,1571235806775,3,This is a,1,These are both,great dane,NA,NA,warmup2
572,NA,pug,NA,NA,12,warmup/great-dane.jpg,pug,This is a,nope,1,dogs,sarah,NA,great dane,NA,NA,Please label the pictures below.,NA,NA,NA,NA,thanks!,NA,warmup/pug.jpg,dog,some_college,NA,NA,english,female,NA,dogs,NA,2,1571235806775,4,This is a,1,These are both,great dane,NA,NA,warmup2
572,NA,pug,NA,NA,12,warmup/great-dane.jpg,pug,This is a,nope,1,dogs,sarah,NA,great dane,NA,NA,Please label the pictures below.,NA,NA,NA,NA,thanks!,NA,warmup/pug.jpg,dog,some_college,NA,NA,english,female,NA,dogs,NA,2,1571235806775,5,This is a,1,These are both,greatdane,NA,NA,warmup2
572,NA,pug,NA,NA,12,warmup/great-dane.jpg,pug,This is a,nope,1,dogs,sarah,NA,great dane,NA,NA,Please label the pictures below.,NA,NA,NA,NA,thanks!,NA,warmup/pug.jpg,dog,some_college,NA,NA,english,female,NA,dogs,NA,2,1571235806775,6,This is a,1,These are both,great dane,NA,NA,warmup2
572,NA,pug,NA,NA,12,warmup/great-dane.jpg,pug,This is a,nope,1,dogs,sarah,NA,great dane,NA,NA,Please label the pictures below.,NA,NA,NA,NA,thanks!,NA,warmup/pug.jpg,dog,some_college,NA,NA,english,female,NA,dogs,NA,2,1571235806775,7,This is a,1,These are both,great dane,NA,NA,warmup2
572,NA,pug,NA,NA,12,warmup/great-dane.jpg,pug,This is a,nope,1,dogs,sarah,NA,great dane,NA,NA,Please label the pictures below.,NA,NA,NA,NA,thanks!,NA,warmup/pug.jpg,dog,some_college,NA,NA,english,female,NA,dogs,NA,2,1571235806775,8,This is a,1,These are both,great dane,NA,NA,warmup2
572,NA,pug,NA,NA,12,warmup/great-dane.jpg,pug,This is a,nope,1,dogs,sarah,NA,great dane,NA,NA,Please label the pictures below.,NA,NA,NA,NA,thanks!,NA,warmup/pug.jpg,dog,some_college,NA,NA,english,female,NA,dogs,NA,2,1571235806775,9,This is a,1,These are both,great dane,NA,NA,warmup2
572,NA,pug,NA,NA,12,warmup/great-dane.jpg,pug,This is a,nope,1,dogs,sarah,NA,great dane,NA,NA,Please label the pictures below.,NA,NA,NA,NA,thanks!,NA,warmup/pug.jpg,dog,some_college,NA,NA,english,female,NA,dogs,NA,2,1571235806775,10,This is a,1,These are both,great dane,NA,NA,warmup2
572,NA,pug,NA,NA,12,warmup/great-dane.jpg,pug,This is a,nope,1,dogs,sarah,NA,great dane,NA,NA,Please label the pictures below.,NA,NA,NA,NA,thanks!,NA,warmup/pug.jpg,dog,some_college,NA,NA,english,female,NA,dogs,NA,2,1571235806775,11,This is a,1,These are both,great dane,NA,NA,warmup2
572,NA,pug,NA,NA,12,warmup/great-dane.jpg,pug,This is a,nope,1,dogs,sarah,NA,great dane,NA,NA,Please label the pictures below.,NA,NA,NA,NA,thanks!,NA,warmup/pug.jpg,dog,some_college,NA,NA,english,female,NA,dogs,NA,2,1571235806775,12,This is a,1,These are both,great dane,NA,NA,warmup2
572,NA,pug,NA,NA,12,warmup/great-dane.jpg,pug,This is a,nope,1,dogs,sarah,NA,great dane,NA,NA,Please label the pictures below.,NA,NA,NA,NA,thanks!,NA,warmup/pug.jpg,dog,some_college,NA,NA,english,female,NA,dogs,NA,2,1571235806775,13,This is a,1,These are both,great dane,NA,NA,warmup2
572,NA,pug,NA,NA,12,warmup/great-dane.jpg,pug,This is a,nope,1,dogs,sarah,NA,great dane,NA,NA,Please label the pictures below.,NA,NA,NA,NA,thanks!,NA,warmup/pug.jpg,dog,some_college,NA,NA,english,female,NA,dogs,NA,2,1571235806775,14,This is a,1,These are both,great dane,NA,NA,warmup2
572,NA,pug,NA,NA,12,warmup/great-dane.jpg,pug,This is a,nope,1,dogs,sarah,NA,great dane,NA,NA,Please label the pictures below.,NA,NA,NA,NA,thanks!,NA,warmup/pug.jpg,dog,some_college,NA,NA,english,female,NA,dogs,NA,2,1571235806775,15,This is a,1,These are both,great dane,NA,NA,warmup2
572,NA,pug,NA,NA,12,warmup/great-dane.jpg,pug,This is a,nope,1,dogs,sarah,NA,great dane,NA,NA,Please label the pictures below.,NA,NA,NA,NA,thanks!,NA,warmup/pug.jpg,dog,some_college,NA,NA,english,female,NA,dogs,NA,2,1571235806775,16,This is a,1,These are both,great dane,NA,NA,warmup2
572,NA,pug,NA,NA,12,warmup/great-dane.jpg,pug,This is a,nope,1,dogs,sarah,NA,great dane,NA,NA,Please label the pictures below.,NA,NA,NA,NA,thanks!,NA,warmup/pug.jpg,dog,some_college,NA,NA,english,female,NA,dogs,NA,2,1571235806775,17,This is a,1,These are both,great dane,NA,NA,warmup2
572,NA,pug,NA,NA,12,warmup/great-dane.jpg,pug,This is a,nope,1,dogs,sarah,NA,great dane,NA,NA,Please label the pictures below.,NA,NA,NA,NA,thanks!,NA,warmup/pug.jpg,dogs,some_college,NA,NA,english,female,NA,dogs,NA,2,1571235806775,18,This is a,1,These are both,great dane,NA,NA,warmup2
572,NA,humingbird,NA,NA,12,warmup/eagle.jpg,hummingbird,This is a,nope,1,birds,sarah,NA,eagle,NA,NA,Please label the pictures below.,NA,NA,NA,NA,thanks!,NA,warmup/colibri.jpg,birds,some_college,NA,NA,english,female,NA,birds,NA,3,1571235806775,1,This is an,1,These are both,eagle,NA,NA,warmup2
572,NA,hummingbird,NA,NA,12,warmup/eagle.jpg,hummingbird,This is a,nope,1,birds,sarah,NA,eagle,NA,NA,Please label the pictures below.,NA,NA,NA,NA,thanks!,NA,warmup/colibri.jpg,birds,some_college,NA,NA,english,female,NA,birds,NA,3,1571235806775,2,This is an,1,These are both,eagle,NA,NA,warmup2
572,What do you think your friend meant?,NA,It is big relative to other,images/dog-parade-basic2.png,12,NA,NA,NA,nope,1,dogs2,sarah,NA,NA,0,NA,"You and your friend see another great dane (not pictured), and your friend says: <br/><b>That dog is big.</b>",predicative,NA,NA,dogs,thanks!,0,NA,NA,some_college,big,NA,english,female,NA,NA,You and your friend see the following:,1,1571235806775,NA,NA,1,NA,NA,NA,basic,custom_main_text2
572,What do you think your friend meant?,NA,It is big relative to other,images/bird-parade-eagle.png,12,NA,NA,NA,nope,1,birds,sarah,NA,NA,1,NA,"You and your friend see another eagle (not pictured), and your friend says: <br/><b>That one is big.</b>",predicative,NA,NA,eagles,thanks!,2,NA,NA,some_college,big,NA,english,female,NA,NA,You and your friend see the following:,2,1571235806775,NA,NA,1,NA,NA,NA,congr,custom_main_text2
572,What do you think your friend meant?,NA,It is small relative to other,images/fish-parade-goldfish.png,12,NA,NA,NA,nope,1,fish,sarah,NA,NA,1,NA,"You and your friend see another goldfish (not pictured), and your friend says: <br/><b>That goldfish is small.</b>",predicative,NA,NA,goldfish,thanks!,1,NA,NA,some_college,small,NA,english,female,NA,NA,You and your friend see the following:,3,1571235806775,NA,NA,1,NA,NA,NA,congr,custom_main_text2
571,<i>What do you think Speaker A meant? </i>,NA,The Empire State Building is tall relative to other,NA,12,NA,NA,NA,no,1,NA,mary,1,NA,NA,NA,NA,NA,"<b> Speaker A: ""The Empire State Building is tall.""</b>",NA,buildings,maybe give some idea as to the time involved?,NA,NA,NA,higher_degree,NA,comp_class_warmup,English,NA,NA,NA,In the main trials you will be asked to rephrase something a person said. The utterance will contain a word that is <i>relative</i> and your task is to figure out what it is relative to. <br /> <br /> For example: <br /><br />,1,1571235620410,1,NA,1,NA,NA,"buildings, scyscrapers, houses, constructions (choose one)",NA,comp_class_warmup
571,NA,stingray,NA,NA,12,warmup/goldfish.png,swordfish,This is a,no,1,fish,mary,NA,goldfish,NA,NA,Please label the pictures below.,NA,NA,NA,NA,maybe give some idea as to the time involved?,NA,warmup/swordfish.jpg,fish,higher_degree,NA,NA,English,NA,NA,fish,NA,1,1571235620410,1,This is a,1,These are both,goldfish,NA,NA,warmup1
571,NA,swordfish,NA,NA,12,warmup/goldfish.png,swordfish,This is a,no,1,fish,mary,NA,goldfish,NA,NA,Please label the pictures below.,NA,NA,NA,NA,maybe give some idea as to the time involved?,NA,warmup/swordfish.jpg,fish,higher_degree,NA,NA,English,NA,NA,fish,NA,1,1571235620410,2,This is a,1,These are both,goldfish,NA,NA,warmup1
571,NA,chihuaua,NA,NA,12,warmup/doberman.png,chihuahua,This is a,no,1,dogs,mary,NA,doberman,NA,NA,Please label the pictures below.,NA,NA,NA,NA,maybe give some idea as to the time involved?,NA,warmup/chihuahua.jpg,dogs,higher_degree,NA,NA,English,NA,NA,dogs,NA,2,1571235620410,1,This is a,1,These are both,great dane,NA,NA,warmup1
571,NA,chihuahua,NA,NA,12,warmup/doberman.png,chihuahua,This is a,no,1,dogs,mary,NA,doberman,NA,NA,Please label the pictures below.,NA,NA,NA,NA,maybe give some idea as to the time involved?,NA,warmup/chihuahua.jpg,dogs,higher_degree,NA,NA,English,NA,NA,dogs,NA,2,1571235620410,2,This is a,1,These are both,doberman,NA,NA,warmup1
571,NA,hummingbird,NA,NA,12,warmup/eagle.jpg,hummingbird,This is a,no,1,birds,mary,NA,eagle,NA,NA,Please label the pictures below.,NA,NA,NA,NA,maybe give some idea as to the time involved?,NA,warmup/colibri.jpg,birds,higher_degree,NA,NA,English,NA,NA,birds,NA,3,1571235620410,1,This is an,1,These are both,eagle,NA,NA,warmup1
571,What do you think your friend meant?,NA,It is small relative to other,images/bird-parade-basic.png,12,NA,NA,NA,no,1,birds,mary,NA,NA,0,NA,"You and your friend see another hummingbird (not pictured), and your friend says: <br/><b>That hummingbird is small.</b>",predicative,NA,NA,hummingbirds,maybe give some idea as to the time involved?,1,NA,NA,higher_degree,small,NA,English,NA,NA,NA,You and your friend see the following:,1,1571235620410,NA,NA,1,NA,NA,NA,basic,custom_main_text1
571,What do you think your friend meant?,NA,It is big relative to other,images/fish-parade-swordfish.png,12,NA,NA,NA,no,1,fish,mary,NA,NA,1,NA,"You and your friend see another swordfish (not pictured), and your friend says: <br/><b>That one is big.</b>",predicative,NA,NA,swordfish,maybe give some idea as to the time involved?,2,NA,NA,higher_degree,big,NA,English,NA,NA,NA,You and your friend see the following:,2,1571235620410,NA,NA,1,NA,NA,NA,congr,custom_main_text1
571,What do you think your friend meant?,NA,It is big relative to other,images/dog-parade-doberman.png,12,NA,NA,NA,no,1,dogs1,mary,NA,NA,1,NA,"You and your friend see another doberman (not pictured), and your friend says: <br/><b>That doberman is big.</b>",predicative,NA,NA,dogs,maybe give some idea as to the time involved?,1,NA,NA,higher_degree,big,NA,English,NA,NA,NA,You and your friend see the following:,3,1571235620410,NA,NA,1,NA,NA,NA,congr,custom_main_text1
571,NA,boxer,NA,NA,12,warmup/great-dane.jpg,pug,This is a,no,1,dogs,mary,NA,great dane,NA,NA,Please label the pictures below.,NA,NA,NA,NA,maybe give some idea as to the time involved?,NA,warmup/pug.jpg,dogs,higher_degree,NA,NA,English,NA,NA,dogs,NA,1,1571235620410,1,This is a,1,These are both,black lab,NA,NA,warmup2
571,NA,pug,NA,NA,12,warmup/great-dane.jpg,pug,This is a,no,1,dogs,mary,NA,great dane,NA,NA,Please label the pictures below.,NA,NA,NA,NA,maybe give some idea as to the time involved?,NA,warmup/pug.jpg,dogs,higher_degree,NA,NA,English,NA,NA,dogs,NA,1,1571235620410,2,This is a,1,These are both,great dane,NA,NA,warmup2
571,NA,sequoia,NA,NA,12,warmup/bonsai.jpg,redwood or sequoia (choose one),This is a,no,1,trees,mary,NA,bonsai,NA,NA,Please label the pictures below.,NA,NA,NA,NA,maybe give some idea as to the time involved?,NA,warmup/sequoia.png,trees,higher_degree,NA,NA,English,NA,NA,trees,NA,2,1571235620410,1,This is a,1,These are both,bonsai,NA,NA,warmup2
571,NA,dandelion,NA,NA,12,warmup/sunflower.png,dandelion,This is a,no,1,flowers,mary,NA,sunflower,NA,NA,Please label the pictures below.,NA,NA,NA,NA,maybe give some idea as to the time involved?,NA,warmup/dandelion.jpg,flowers,higher_degree,NA,NA,English,NA,NA,flowers,NA,3,1571235620410,1,This is a,1,These are both,sunflower,NA,NA,warmup2
571,What do you think your friend meant?,NA,It is small relative to other,images/flower-parade-basic.png,12,NA,NA,NA,no,1,flowers,mary,NA,NA,0,NA,"You and your friend see another dandelion (not pictured), and your friend says: <br/><b>That flower is small.</b>",predicative,NA,NA,flowers,maybe give some idea as to the time involved?,0,NA,NA,higher_degree,small,NA,English,NA,NA,NA,You and your friend see the following:,1,1571235620410,NA,NA,1,NA,NA,NA,basic,custom_main_text2
571,What do you think your friend meant?,NA,It is big relative to other,images/dog-parade-great-dane.png,12,NA,NA,NA,no,1,dogs2,mary,NA,NA,1,NA,"You and your friend see another great dane (not pictured), and your friend says: <br/><b>That dog is big.</b>",predicative,NA,NA,dogs,maybe give some idea as to the time involved?,0,NA,NA,higher_degree,big,NA,English,NA,NA,NA,You and your friend see the following:,2,1571235620410,NA,NA,1,NA,NA,NA,congr,custom_main_text2
571,What do you think your friend meant?,NA,It is small relative to other,images/tree-parade-basic.png,12,NA,NA,NA,no,1,trees,mary,NA,NA,0,NA,"You and your friend see another bonsai (not pictured), and your friend says: <br/><b>That one is small.</b>",predicative,NA,NA,bonsai,maybe give some idea as to the time involved?,2,NA,NA,higher_degree,small,NA,English,NA,NA,NA,You and your friend see the following:,3,1571235620410,NA,NA,1,NA,NA,NA,basic,custom_main_text2
566,<i>What do you think Speaker A meant? </i>,NA,The Empire State Building is tall relative to other,NA,12,NA,NA,NA,none,2,NA,margaret,1,NA,NA,yes,NA,NA,"<b> Speaker A: ""The Empire State Building is tall.""</b>",69,buildings,"none. thank you, it was different.",NA,NA,NA,some_college,NA,comp_class_warmup,english,female,NA,NA,In the main trials you will be asked to rephrase something a person said. The utterance will contain a word that is <i>relative</i> and your task is to figure out what it is relative to. <br /> <br /> For example: <br /><br />,1,1571235068456,1,NA,1,NA,NA,"buildings, scyscrapers, houses, constructions (choose one)",NA,comp_class_warmup
566,NA,dandelion,NA,NA,12,warmup/sunflower.png,dandelion,This is a,none,2,flowers,margaret,NA,sunflower,NA,yes,Please label the pictures below.,NA,NA,69,NA,"none. thank you, it was different.",NA,warmup/dandelion.jpg,yellow,some_college,NA,NA,english,female,NA,flowers,NA,1,1571235068456,1,This is a,1,These are both,sunflower,NA,NA,warmup1
566,NA,dandelion,NA,NA,12,warmup/sunflower.png,dandelion,This is a,none,2,flowers,margaret,NA,sunflower,NA,yes,Please label the pictures below.,NA,NA,69,NA,"none. thank you, it was different.",NA,warmup/dandelion.jpg,flowers,some_college,NA,NA,english,female,NA,flowers,NA,1,1571235068456,2,This is a,1,These are both,sunflower,NA,NA,warmup1
566,NA,pug,NA,NA,12,warmup/great-dane.jpg,pug,This is a,none,2,dogs,margaret,NA,great dane,NA,yes,Please label the pictures below.,NA,NA,69,NA,"none. thank you, it was different.",NA,warmup/pug.jpg,dogs,some_college,NA,NA,english,female,NA,dogs,NA,2,1571235068456,1,This is a,1,These are both,weinmaraner,NA,NA,warmup1
566,NA,pug,NA,NA,12,warmup/great-dane.jpg,pug,This is a,none,2,dogs,margaret,NA,great dane,NA,yes,Please label the pictures below.,NA,NA,69,NA,"none. thank you, it was different.",NA,warmup/pug.jpg,dogs,some_college,NA,NA,english,female,NA,dogs,NA,2,1571235068456,2,This is a,1,These are both,great dane,NA,NA,warmup1
566,NA,tree,NA,NA,12,warmup/bonsai.jpg,redwood or sequoia (choose one),This is a,none,2,trees,margaret,NA,bonsai,NA,yes,Please label the pictures below.,NA,NA,69,NA,"none. thank you, it was different.",NA,warmup/sequoia.png,trees,some_college,NA,NA,english,female,NA,trees,NA,3,1571235068456,1,This is a,1,These are both,bonsai,NA,NA,warmup1
566,NA,redwood,NA,NA,12,warmup/bonsai.jpg,redwood or sequoia (choose one),This is a,none,2,trees,margaret,NA,bonsai,NA,yes,Please label the pictures below.,NA,NA,69,NA,"none. thank you, it was different.",NA,warmup/sequoia.png,trees,some_college,NA,NA,english,female,NA,trees,NA,3,1571235068456,2,This is a,1,These are both,bonsai,NA,NA,warmup1
566,What do you think your friend meant?,NA,It is big relative to other,images/dog-parade-great-dane.png,12,NA,NA,NA,none,2,dogs2,margaret,NA,NA,1,yes,"You and your friend see another great dane (not pictured), and your friend says: <br/><b>That one is big.</b>",predicative,NA,69,dogs,"none. thank you, it was different.",2,NA,NA,some_college,big,NA,english,female,NA,NA,You and your friend see the following:,1,1571235068456,NA,NA,1,NA,NA,NA,congr,custom_main_text1
566,What do you think your friend meant?,NA,It is big relative to other,images/flower-parade-basic.png,12,NA,NA,NA,none,2,flowers,margaret,NA,NA,0,yes,"You and your friend see another sunflower (not pictured), and your friend says: <br/><b>That flower is big.</b>",predicative,NA,69,flowers,"none. thank you, it was different.",0,NA,NA,some_college,big,NA,english,female,NA,NA,You and your friend see the following:,2,1571235068456,NA,NA,1,NA,NA,NA,basic,custom_main_text1
566,What do you think your friend meant?,NA,It is small relative to other,images/tree-parade-basic.png,12,NA,NA,NA,none,2,trees,margaret,NA,NA,0,yes,"You and your friend see another bonsai (not pictured), and your friend says: <br/><b>That bonsai is small.</b>",predicative,NA,69,bonsais,"none. thank you, it was different.",1,NA,NA,some_college,small,NA,english,female,NA,NA,You and your friend see the following:,3,1571235068456,NA,NA,1,NA,NA,NA,basic,custom_main_text1
566,NA,swordfish,NA,NA,12,warmup/goldfish.png,swordfish,This is a,none,2,fish,margaret,NA,goldfish,NA,yes,Please label the pictures below.,NA,NA,69,NA,"none. thank you, it was different.",NA,warmup/swordfish.jpg,fish\nfish,some_college,NA,NA,english,female,NA,fish,NA,1,1571235068456,1,This is a,1,These are both,goldfish,NA,NA,warmup2
566,NA,swordfish,NA,NA,12,warmup/goldfish.png,swordfish,This is a,none,2,fish,margaret,NA,goldfish,NA,yes,Please label the pictures below.,NA,NA,69,NA,"none. thank you, it was different.",NA,warmup/swordfish.jpg,fish\nfish,some_college,NA,NA,english,female,NA,fish,NA,1,1571235068456,2,This is a,1,These are both,goldfish,NA,NA,warmup2
566,NA,swordfish,NA,NA,12,warmup/goldfish.png,swordfish,This is a,none,2,fish,margaret,NA,goldfish,NA,yes,Please label the pictures below.,NA,NA,69,NA,"none. thank you, it was different.",NA,warmup/swordfish.jpg,fish\nfish,some_college,NA,NA,english,female,NA,fish,NA,1,1571235068456,3,This is a,1,These are both,goldfish,NA,NA,warmup2
566,NA,swordfish,NA,NA,12,warmup/goldfish.png,swordfish,This is a,none,2,fish,margaret,NA,goldfish,NA,yes,Please label the pictures below.,NA,NA,69,NA,"none. thank you, it was different.",NA,warmup/swordfish.jpg,fish,some_college,NA,NA,english,female,NA,fish,NA,1,1571235068456,4,This is a,1,These are both,goldfish,NA,NA,warmup2
566,NA,chicaua,NA,NA,12,warmup/doberman.png,chihuahua,This is a,none,2,dogs,margaret,NA,doberman,NA,yes,Please label the pictures below.,NA,NA,69,NA,"none. thank you, it was different.",NA,warmup/chihuahua.jpg,dogs,some_college,NA,NA,english,female,NA,dogs,NA,2,1571235068456,1,This is a,1,These are both,doberman,NA,NA,warmup2
566,NA,chihuahua,NA,NA,12,warmup/doberman.png,chihuahua,This is a,none,2,dogs,margaret,NA,doberman,NA,yes,Please label the pictures below.,NA,NA,69,NA,"none. thank you, it was different.",NA,warmup/chihuahua.jpg,dogs,some_college,NA,NA,english,female,NA,dogs,NA,2,1571235068456,2,This is a,1,These are both,doberman,NA,NA,warmup2
566,NA,hummingbird,NA,NA,12,warmup/eagle.jpg,hummingbird,This is a,none,2,birds,margaret,NA,eagle,NA,yes,Please label the pictures below.,NA,NA,69,NA,"none. thank you, it was different.",NA,warmup/colibri.jpg,birds,some_college,NA,NA,english,female,NA,birds,NA,3,1571235068456,1,This is an,1,These are both,eagle,NA,NA,warmup2
566,What do you think your friend meant?,NA,It is small relative to other,images/bird-parade-hummingbird.png,12,NA,NA,NA,none,2,birds,margaret,NA,NA,1,yes,"You and your friend see another hummingbird (not pictured), and your friend says: <br/><b>That hummingbird is small.</b>",predicative,NA,69,hummingbirds,"none. thank you, it was different.",1,NA,NA,some_college,small,NA,english,female,NA,NA,You and your friend see the following:,1,1571235068456,NA,NA,1,NA,NA,NA,congr,custom_main_text2
566,What do you think your friend meant?,NA,It is big relative to other,images/fish-parade-basic.png,12,NA,NA,NA,none,2,fish,margaret,NA,NA,0,yes,"You and your friend see another swordfish (not pictured), and your friend says: <br/><b>That fish is big.</b>",predicative,NA,69,fish,"none. thank you, it was different.",0,NA,NA,some_college,big,NA,english,female,NA,NA,You and your friend see the following:,2,1571235068456,NA,NA,1,NA,NA,NA,basic,custom_main_text2
566,What do you think your friend meant?,NA,It is small relative to other,images/dog-parade-chihuahua.png,12,NA,NA,NA,none,2,dogs1,margaret,NA,NA,1,yes,"You and your friend see another chihuahua (not pictured), and your friend says: <br/><b>That one is small.</b>",predicative,NA,69,chhihuahuas,"none. thank you, it was different.",2,NA,NA,some_college,small,NA,english,female,NA,NA,You and your friend see the following:,3,1571235068456,NA,NA,1,NA,NA,NA,congr,custom_main_text2
565,<i>What do you think Speaker A meant? </i>,NA,The Empire State Building is tall relative to other,NA,12,NA,NA,NA,NA,2,NA,jennifer,1,NA,NA,yes,NA,NA,"<b> Speaker A: ""The Empire State Building is tall.""</b>",28,Building,NA,NA,NA,NA,graduated_college,NA,comp_class_warmup,English,male,NA,NA,In the main trials you will be asked to rephrase something a person said. The utterance will contain a word that is <i>relative</i> and your task is to figure out what it is relative to. <br /> <br /> For example: <br /><br />,1,1571235028637,1,NA,1,NA,NA,"buildings, scyscrapers, houses, constructions (choose one)",NA,comp_class_warmup
565,NA,dog,NA,NA,12,warmup/great-dane.jpg,pug,This is a,NA,2,dogs,jennifer,NA,great dane,NA,yes,Please label the pictures below.,NA,NA,28,NA,NA,NA,warmup/pug.jpg,dogs,graduated_college,NA,NA,English,male,NA,dogs,NA,1,1571235028637,1,This is a,1,These are both,dog,NA,NA,warmup1
565,NA,pug,NA,NA,12,warmup/great-dane.jpg,pug,This is a,NA,2,dogs,jennifer,NA,great dane,NA,yes,Please label the pictures below.,NA,NA,28,NA,NA,NA,warmup/pug.jpg,dogs,graduated_college,NA,NA,English,male,NA,dogs,NA,1,1571235028637,2,This is a,1,These are both,great dane,NA,NA,warmup1
565,NA,floy,NA,NA,12,warmup/eagle.jpg,hummingbird,This is a,NA,2,birds,jennifer,NA,eagle,NA,yes,Please label the pictures below.,NA,NA,28,NA,NA,NA,warmup/colibri.jpg,birds,graduated_college,NA,NA,English,male,NA,birds,NA,2,1571235028637,1,This is an,1,These are both,pegioenb,NA,NA,warmup1
565,NA,hummingbird,NA,NA,12,warmup/eagle.jpg,hummingbird,This is a,NA,2,birds,jennifer,NA,eagle,NA,yes,Please label the pictures below.,NA,NA,28,NA,NA,NA,warmup/colibri.jpg,birds,graduated_college,NA,NA,English,male,NA,birds,NA,2,1571235028637,2,This is an,1,These are both,eagle,NA,NA,warmup1
565,NA,flower,NA,NA,12,warmup/sunflower.png,dandelion,This is a,NA,2,flowers,jennifer,NA,sunflower,NA,yes,Please label the pictures below.,NA,NA,28,NA,NA,NA,warmup/dandelion.jpg,flower,graduated_college,NA,NA,English,male,NA,flowers,NA,3,1571235028637,1,This is a,1,These are both,flower,NA,NA,warmup1
565,NA,dandelion,NA,NA,12,warmup/sunflower.png,dandelion,This is a,NA,2,flowers,jennifer,NA,sunflower,NA,yes,Please label the pictures below.,NA,NA,28,NA,NA,NA,warmup/dandelion.jpg,flower,graduated_college,NA,NA,English,male,NA,flowers,NA,3,1571235028637,2,This is a,1,These are both,sunflower,NA,NA,warmup1
565,NA,dandelion,NA,NA,12,warmup/sunflower.png,dandelion,This is a,NA,2,flowers,jennifer,NA,sunflower,NA,yes,Please label the pictures below.,NA,NA,28,NA,NA,NA,warmup/dandelion.jpg,flower,graduated_college,NA,NA,English,male,NA,flowers,NA,3,1571235028637,3,This is a,1,These are both,sunflower,NA,NA,warmup1
565,NA,dandelion,NA,NA,12,warmup/sunflower.png,dandelion,This is a,NA,2,flowers,jennifer,NA,sunflower,NA,yes,Please label the pictures below.,NA,NA,28,NA,NA,NA,warmup/dandelion.jpg,flowers,graduated_college,NA,NA,English,male,NA,flowers,NA,3,1571235028637,4,This is a,1,These are both,sunflower,NA,NA,warmup1
565,What do you think your friend meant?,NA,It is big relative to other,images/bird-parade-eagle.png,12,NA,NA,NA,NA,2,birds,jennifer,NA,NA,1,yes,"You and your friend see another eagle (not pictured), and your friend says: <br/><b>That bird is big.</b>",predicative,NA,28,big,NA,0,NA,NA,graduated_college,big,NA,English,male,NA,NA,You and your friend see the following:,1,1571235028637,NA,NA,1,NA,NA,NA,congr,custom_main_text1
565,What do you think your friend meant?,NA,It is big relative to other,images/flower-parade-basic.png,12,NA,NA,NA,NA,2,flowers,jennifer,NA,NA,0,yes,"You and your friend see another sunflower (not pictured), and your friend says: <br/><b>That sunflower is big.</b>",predicative,NA,28,sunflower,NA,1,NA,NA,graduated_college,big,NA,English,male,NA,NA,You and your friend see the following:,2,1571235028637,NA,NA,1,NA,NA,NA,basic,custom_main_text1
565,What do you think your friend meant?,NA,It is big relative to other,images/dog-parade-great-dane.png,12,NA,NA,NA,NA,2,dogs2,jennifer,NA,NA,1,yes,"You and your friend see another great dane (not pictured), and your friend says: <br/><b>That one is big.</b>",predicative,NA,28,dog,NA,2,NA,NA,graduated_college,big,NA,English,male,NA,NA,You and your friend see the following:,3,1571235028637,NA,NA,1,NA,NA,NA,congr,custom_main_text1
565,NA,whale,NA,NA,12,warmup/goldfish.png,swordfish,This is a,NA,2,fish,jennifer,NA,goldfish,NA,yes,Please label the pictures below.,NA,NA,28,NA,NA,NA,warmup/swordfish.jpg,fish,graduated_college,NA,NA,English,male,NA,fish,NA,1,1571235028637,1,This is a,1,These are both,fish,NA,NA,warmup2
565,NA,swordfish,NA,NA,12,warmup/goldfish.png,swordfish,This is a,NA,2,fish,jennifer,NA,goldfish,NA,yes,Please label the pictures below.,NA,NA,28,NA,NA,NA,warmup/swordfish.jpg,fish,graduated_college,NA,NA,English,male,NA,fish,NA,1,1571235028637,2,This is a,1,These are both,goldfish,NA,NA,warmup2
565,NA,tree,NA,NA,12,warmup/bonsai.jpg,redwood or sequoia (choose one),This is a,NA,2,trees,jennifer,NA,bonsai,NA,yes,Please label the pictures below.,NA,NA,28,NA,NA,NA,warmup/sequoia.png,tree,graduated_college,NA,NA,English,male,NA,trees,NA,2,1571235028637,1,This is a,1,These are both,tree,NA,NA,warmup2
565,NA,redwood,NA,NA,12,warmup/bonsai.jpg,redwood or sequoia (choose one),This is a,NA,2,trees,jennifer,NA,bonsai,NA,yes,Please label the pictures below.,NA,NA,28,NA,NA,NA,warmup/sequoia.png,tree,graduated_college,NA,NA,English,male,NA,trees,NA,2,1571235028637,2,This is a,1,These are both,bonsai,NA,NA,warmup2
565,NA,redwood,NA,NA,12,warmup/bonsai.jpg,redwood or sequoia (choose one),This is a,NA,2,trees,jennifer,NA,bonsai,NA,yes,Please label the pictures below.,NA,NA,28,NA,NA,NA,warmup/sequoia.png,tree,graduated_college,NA,NA,English,male,NA,trees,NA,2,1571235028637,3,This is a,1,These are both,bonsai,NA,NA,warmup2
565,NA,redwood,NA,NA,12,warmup/bonsai.jpg,redwood or sequoia (choose one),This is a,NA,2,trees,jennifer,NA,bonsai,NA,yes,Please label the pictures below.,NA,NA,28,NA,NA,NA,warmup/sequoia.png,tree,graduated_college,NA,NA,English,male,NA,trees,NA,2,1571235028637,4,This is a,1,These are both,bonsai,NA,NA,warmup2
565,NA,redwood,NA,NA,12,warmup/bonsai.jpg,redwood or sequoia (choose one),This is a,NA,2,trees,jennifer,NA,bonsai,NA,yes,Please label the pictures below.,NA,NA,28,NA,NA,NA,warmup/sequoia.png,tree,graduated_college,NA,NA,English,male,NA,trees,NA,2,1571235028637,5,This is a,1,These are both,bonsai,NA,NA,warmup2
565,NA,redwood,NA,NA,12,warmup/bonsai.jpg,redwood or sequoia (choose one),This is a,NA,2,trees,jennifer,NA,bonsai,NA,yes,Please label the pictures below.,NA,NA,28,NA,NA,NA,warmup/sequoia.png,tree,graduated_college,NA,NA,English,male,NA,trees,NA,2,1571235028637,6,This is a,1,These are both,bonsai,NA,NA,warmup2
565,NA,redwood,NA,NA,12,warmup/bonsai.jpg,redwood or sequoia (choose one),This is a,NA,2,trees,jennifer,NA,bonsai,NA,yes,Please label the pictures below.,NA,NA,28,NA,NA,NA,warmup/sequoia.png,trees,graduated_college,NA,NA,English,male,NA,trees,NA,2,1571235028637,7,This is a,1,These are both,bonsai,NA,NA,warmup2
565,NA,pug,NA,NA,12,warmup/doberman.png,chihuahua,This is a,NA,2,dogs,jennifer,NA,doberman,NA,yes,Please label the pictures below.,NA,NA,28,NA,NA,NA,warmup/chihuahua.jpg,dogs,graduated_college,NA,NA,English,male,NA,dogs,NA,3,1571235028637,1,This is a,1,These are both,doberman,NA,NA,warmup2
565,NA,chihuahua,NA,NA,12,warmup/doberman.png,chihuahua,This is a,NA,2,dogs,jennifer,NA,doberman,NA,yes,Please label the pictures below.,NA,NA,28,NA,NA,NA,warmup/chihuahua.jpg,dogs,graduated_college,NA,NA,English,male,NA,dogs,NA,3,1571235028637,2,This is a,1,These are both,doberman,NA,NA,warmup2
565,What do you think your friend meant?,NA,It is small relative to other,images/dog-parade-chihuahua.png,12,NA,NA,NA,NA,2,dogs1,jennifer,NA,NA,1,yes,"You and your friend see another chihuahua (not pictured), and your friend says: <br/><b>That one is small.</b>",predicative,NA,28,dog,NA,2,NA,NA,graduated_college,small,NA,English,male,NA,NA,You and your friend see the following:,1,1571235028637,NA,NA,1,NA,NA,NA,congr,custom_main_text2
565,What do you think your friend meant?,NA,It is small relative to other,images/tree-parade-basic.png,12,NA,NA,NA,NA,2,trees,jennifer,NA,NA,0,yes,"You and your friend see another bonsai (not pictured), and your friend says: <br/><b>That tree is small.</b>",predicative,NA,28,tree,NA,0,NA,NA,graduated_college,small,NA,English,male,NA,NA,You and your friend see the following:,2,1571235028637,NA,NA,1,NA,NA,NA,basic,custom_main_text2
565,What do you think your friend meant?,NA,It is small relative to other,images/fish-parade-basic.png,12,NA,NA,NA,NA,2,fish,jennifer,NA,NA,0,yes,"You and your friend see another goldfish (not pictured), and your friend says: <br/><b>That goldfish is small.</b>",predicative,NA,28,goldfish,NA,1,NA,NA,graduated_college,small,NA,English,male,NA,NA,You and your friend see the following:,3,1571235028637,NA,NA,1,NA,NA,NA,basic,custom_main_text2
564,<i>What do you think Speaker A meant? </i>,NA,The Empire State Building is tall relative to other,NA,12,NA,NA,NA,no,1,NA,susan,1,NA,NA,yes,NA,NA,"<b> Speaker A: ""The Empire State Building is tall.""</b>",31,buildings,it was fun thanks so much,NA,NA,NA,graduated_college,NA,comp_class_warmup,english,female,NA,NA,In the main trials you will be asked to rephrase something a person said. The utterance will contain a word that is <i>relative</i> and your task is to figure out what it is relative to. <br /> <br /> For example: <br /><br />,1,1571234713102,1,NA,2,NA,NA,"buildings, scyscrapers, houses, constructions (choose one)",NA,comp_class_warmup
564,NA,dog,NA,NA,12,warmup/great-dane.jpg,pug,This is a,no,1,dogs,susan,NA,great dane,NA,yes,Please label the pictures below.,NA,NA,31,NA,it was fun thanks so much,NA,warmup/pug.jpg,dogs,graduated_college,NA,NA,english,female,NA,dogs,NA,1,1571234713102,1,This is a,2,These are both,dog,NA,NA,warmup1
564,NA,pug,NA,NA,12,warmup/great-dane.jpg,pug,This is a,no,1,dogs,susan,NA,great dane,NA,yes,Please label the pictures below.,NA,NA,31,NA,it was fun thanks so much,NA,warmup/pug.jpg,dogs,graduated_college,NA,NA,english,female,NA,dogs,NA,1,1571234713102,2,This is a,2,These are both,great dane,NA,NA,warmup1
564,NA,shark,NA,NA,12,warmup/goldfish.png,swordfish,This is a,no,1,fish,susan,NA,goldfish,NA,yes,Please label the pictures below.,NA,NA,31,NA,it was fun thanks so much,NA,warmup/swordfish.jpg,fish,graduated_college,NA,NA,english,female,NA,fish,NA,2,1571234713102,1,This is a,2,These are both,goldfish,NA,NA,warmup1
564,NA,swordfish,NA,NA,12,warmup/goldfish.png,swordfish,This is a,no,1,fish,susan,NA,goldfish,NA,yes,Please label the pictures below.,NA,NA,31,NA,it was fun thanks so much,NA,warmup/swordfish.jpg,fish,graduated_college,NA,NA,english,female,NA,fish,NA,2,1571234713102,2,This is a,2,These are both,goldfish,NA,NA,warmup1
564,NA,humming bird,NA,NA,12,warmup/eagle.jpg,hummingbird,This is a,no,1,birds,susan,NA,eagle,NA,yes,Please label the pictures below.,NA,NA,31,NA,it was fun thanks so much,NA,warmup/colibri.jpg,birds,graduated_college,NA,NA,english,female,NA,birds,NA,3,1571234713102,1,This is an,2,These are both,eagle,NA,NA,warmup1
564,NA,hummingbird,NA,NA,12,warmup/eagle.jpg,hummingbird,This is a,no,1,birds,susan,NA,eagle,NA,yes,Please label the pictures below.,NA,NA,31,NA,it was fun thanks so much,NA,warmup/colibri.jpg,birds,graduated_college,NA,NA,english,female,NA,birds,NA,3,1571234713102,2,This is an,2,These are both,eagle,NA,NA,warmup1
564,What do you think your friend meant?,NA,It is big relative to other,images/dog-parade-basic2.png,12,NA,NA,NA,no,1,dogs2,susan,NA,NA,0,yes,"You and your friend see another great dane (not pictured), and your friend says: <br/><b>That dog is big.</b>",predicative,NA,31,great danes,it was fun thanks so much,0,NA,NA,graduated_college,big,NA,english,female,NA,NA,You and your friend see the following:,1,1571234713102,NA,NA,2,NA,NA,NA,basic,custom_main_text1
564,What do you think your friend meant?,NA,It is big relative to other,images/fish-parade-swordfish.png,12,NA,NA,NA,no,1,fish,susan,NA,NA,1,yes,"You and your friend see another swordfish (not pictured), and your friend says: <br/><b>That one is big.</b>",predicative,NA,31,fish,it was fun thanks so much,2,NA,NA,graduated_college,big,NA,english,female,NA,NA,You and your friend see the following:,2,1571234713102,NA,NA,2,NA,NA,NA,congr,custom_main_text1
564,What do you think your friend meant?,NA,It is big relative to other,images/bird-parade-basic.png,12,NA,NA,NA,no,1,birds,susan,NA,NA,0,yes,"You and your friend see another eagle (not pictured), and your friend says: <br/><b>That eagle is big.</b>",predicative,NA,31,birds,it was fun thanks so much,1,NA,NA,graduated_college,big,NA,english,female,NA,NA,You and your friend see the following:,3,1571234713102,NA,NA,2,NA,NA,NA,basic,custom_main_text1
564,NA,chihuahua,NA,NA,12,warmup/doberman.png,chihuahua,This is a,no,1,dogs,susan,NA,doberman,NA,yes,Please label the pictures below.,NA,NA,31,NA,it was fun thanks so much,NA,warmup/chihuahua.jpg,dogs,graduated_college,NA,NA,english,female,NA,dogs,NA,1,1571234713102,1,This is a,2,These are both,great dane,NA,NA,warmup2
564,NA,chihuahua,NA,NA,12,warmup/doberman.png,chihuahua,This is a,no,1,dogs,susan,NA,doberman,NA,yes,Please label the pictures below.,NA,NA,31,NA,it was fun thanks so much,NA,warmup/chihuahua.jpg,dogs,graduated_college,NA,NA,english,female,NA,dogs,NA,1,1571234713102,2,This is a,2,These are both,doberman,NA,NA,warmup2
564,NA,dandelion,NA,NA,12,warmup/sunflower.png,dandelion,This is a,no,1,flowers,susan,NA,sunflower,NA,yes,Please label the pictures below.,NA,NA,31,NA,it was fun thanks so much,NA,warmup/dandelion.jpg,flowers,graduated_college,NA,NA,english,female,NA,flowers,NA,2,1571234713102,1,This is a,2,These are both,sunflower,NA,NA,warmup2
564,NA,oak tree,NA,NA,12,warmup/bonsai.jpg,redwood or sequoia (choose one),This is a,no,1,trees,susan,NA,bonsai,NA,yes,Please label the pictures below.,NA,NA,31,NA,it was fun thanks so much,NA,warmup/sequoia.png,trees,graduated_college,NA,NA,english,female,NA,trees,NA,3,1571234713102,1,This is a,2,These are both,plant,NA,NA,warmup2
564,NA,redwood,NA,NA,12,warmup/bonsai.jpg,redwood or sequoia (choose one),This is a,no,1,trees,susan,NA,bonsai,NA,yes,Please label the pictures below.,NA,NA,31,NA,it was fun thanks so much,NA,warmup/sequoia.png,trees,graduated_college,NA,NA,english,female,NA,trees,NA,3,1571234713102,2,This is a,2,These are both,bonsai,NA,NA,warmup2
564,What do you think your friend meant?,NA,It is small relative to other,images/tree-parade-basic.png,12,NA,NA,NA,no,1,trees,susan,NA,NA,0,yes,"You and your friend see another bonsai (not pictured), and your friend says: <br/><b>That bonsai is small.</b>",predicative,NA,31,trees,it was fun thanks so much,1,NA,NA,graduated_college,small,NA,english,female,NA,NA,You and your friend see the following:,1,1571234713102,NA,NA,2,NA,NA,NA,basic,custom_main_text2
564,What do you think your friend meant?,NA,It is small relative to other,images/flower-parade-dandelion.png,12,NA,NA,NA,no,1,flowers,susan,NA,NA,1,yes,"You and your friend see another dandelion (not pictured), and your friend says: <br/><b>That one is small.</b>",predicative,NA,31,flowers,it was fun thanks so much,2,NA,NA,graduated_college,small,NA,english,female,NA,NA,You and your friend see the following:,2,1571234713102,NA,NA,2,NA,NA,NA,congr,custom_main_text2
564,What do you think your friend meant?,NA,It is small relative to other,images/dog-parade-chihuahua.png,12,NA,NA,NA,no,1,dogs1,susan,NA,NA,1,yes,"You and your friend see another chihuahua (not pictured), and your friend says: <br/><b>That dog is small.</b>",predicative,NA,31,dogs,it was fun thanks so much,0,NA,NA,graduated_college,small,NA,english,female,NA,NA,You and your friend see the following:,3,1571234713102,NA,NA,2,NA,NA,NA,congr,custom_main_text2
563,<i>What do you think Speaker A meant? </i>,NA,The Empire State Building is tall relative to other,NA,12,NA,NA,NA,NA,1,NA,jessica,1,NA,NA,yes,NA,NA,"<b> Speaker A: ""The Empire State Building is tall.""</b>",25,buildings,NA,NA,NA,NA,graduated_high_school,NA,comp_class_warmup,English,male,NA,NA,In the main trials you will be asked to rephrase something a person said. The utterance will contain a word that is <i>relative</i> and your task is to figure out what it is relative to. <br /> <br /> For example: <br /><br />,1,1571235126361,1,NA,1.5,NA,NA,"buildings, scyscrapers, houses, constructions (choose one)",NA,comp_class_warmup
563,NA,dog,NA,NA,12,warmup/doberman.png,chihuahua,This is a,NA,1,dogs,jessica,NA,doberman,NA,yes,Please label the pictures below.,NA,NA,25,NA,NA,NA,warmup/chihuahua.jpg,dogs,graduated_high_school,NA,NA,English,male,NA,dogs,NA,1,1571235126361,1,This is a,1.5,These are both,dog,NA,NA,warmup1
563,NA,chihuahua,NA,NA,12,warmup/doberman.png,chihuahua,This is a,NA,1,dogs,jessica,NA,doberman,NA,yes,Please label the pictures below.,NA,NA,25,NA,NA,NA,warmup/chihuahua.jpg,dogs,graduated_high_school,NA,NA,English,male,NA,dogs,NA,1,1571235126361,2,This is a,1.5,These are both,doberman,NA,NA,warmup1
563,NA,dog,NA,NA,12,warmup/great-dane.jpg,pug,This is a,NA,1,dogs,jessica,NA,great dane,NA,yes,Please label the pictures below.,NA,NA,25,NA,NA,NA,warmup/pug.jpg,dogs,graduated_high_school,NA,NA,English,male,NA,dogs,NA,2,1571235126361,1,This is a,1.5,These are both,dog,NA,NA,warmup1
563,NA,pug,NA,NA,12,warmup/great-dane.jpg,pug,This is a,NA,1,dogs,jessica,NA,great dane,NA,yes,Please label the pictures below.,NA,NA,25,NA,NA,NA,warmup/pug.jpg,dogs,graduated_high_school,NA,NA,English,male,NA,dogs,NA,2,1571235126361,2,This is a,1.5,These are both,great dane,NA,NA,warmup1
563,NA,tree,NA,NA,12,warmup/bonsai.jpg,redwood or sequoia (choose one),This is a,NA,1,trees,jessica,NA,bonsai,NA,yes,Please label the pictures below.,NA,NA,25,NA,NA,NA,warmup/sequoia.png,trees,graduated_high_school,NA,NA,English,male,NA,trees,NA,3,1571235126361,1,This is a,1.5,These are both,stub,NA,NA,warmup1
563,NA,redwood,NA,NA,12,warmup/bonsai.jpg,redwood or sequoia (choose one),This is a,NA,1,trees,jessica,NA,bonsai,NA,yes,Please label the pictures below.,NA,NA,25,NA,NA,NA,warmup/sequoia.png,trees,graduated_high_school,NA,NA,English,male,NA,trees,NA,3,1571235126361,2,This is a,1.5,These are both,bonsai,NA,NA,warmup1
563,What do you think your friend meant?,NA,It is small relative to other,images/tree-parade-basic.png,12,NA,NA,NA,NA,1,trees,jessica,NA,NA,0,yes,"You and your friend see another bonsai (not pictured), and your friend says: <br/><b>That tree is small.</b>",predicative,NA,25,trees,NA,0,NA,NA,graduated_high_school,small,NA,English,male,NA,NA,You and your friend see the following:,1,1571235126361,NA,NA,1.5,NA,NA,NA,basic,custom_main_text1
563,What do you think your friend meant?,NA,It is big relative to other,images/dog-parade-basic2.png,12,NA,NA,NA,NA,1,dogs2,jessica,NA,NA,0,yes,"You and your friend see another great dane (not pictured), and your friend says: <br/><b>That great dane is big.</b>",predicative,NA,25,dogs,NA,1,NA,NA,graduated_high_school,big,NA,English,male,NA,NA,You and your friend see the following:,2,1571235126361,NA,NA,1.5,NA,NA,NA,basic,custom_main_text1
563,What do you think your friend meant?,NA,It is big relative to other,images/dog-parade-basic.png,12,NA,NA,NA,NA,1,dogs1,jessica,NA,NA,0,yes,"You and your friend see another doberman (not pictured), and your friend says: <br/><b>That one is big.</b>",predicative,NA,25,dogs,NA,2,NA,NA,graduated_high_school,big,NA,English,male,NA,NA,You and your friend see the following:,3,1571235126361,NA,NA,1.5,NA,NA,NA,basic,custom_main_text1
563,NA,flower,NA,NA,12,warmup/sunflower.png,dandelion,This is a,NA,1,flowers,jessica,NA,sunflower,NA,yes,Please label the pictures below.,NA,NA,25,NA,NA,NA,warmup/dandelion.jpg,flowers,graduated_high_school,NA,NA,English,male,NA,flowers,NA,1,1571235126361,1,This is a,1.5,These are both,sunflower,NA,NA,warmup2
563,NA,dandelion,NA,NA,12,warmup/sunflower.png,dandelion,This is a,NA,1,flowers,jessica,NA,sunflower,NA,yes,Please label the pictures below.,NA,NA,25,NA,NA,NA,warmup/dandelion.jpg,flowers,graduated_high_school,NA,NA,English,male,NA,flowers,NA,1,1571235126361,2,This is a,1.5,These are both,sunflower,NA,NA,warmup2
563,NA,swordfish,NA,NA,12,warmup/goldfish.png,swordfish,This is a,NA,1,fish,jessica,NA,goldfish,NA,yes,Please label the pictures below.,NA,NA,25,NA,NA,NA,warmup/swordfish.jpg,fish,graduated_high_school,NA,NA,English,male,NA,fish,NA,2,1571235126361,1,This is a,1.5,These are both,goldfish,NA,NA,warmup2
563,NA,bluebird,NA,NA,12,warmup/eagle.jpg,hummingbird,This is a,NA,1,birds,jessica,NA,eagle,NA,yes,Please label the pictures below.,NA,NA,25,NA,NA,NA,warmup/colibri.jpg,birds,graduated_high_school,NA,NA,English,male,NA,birds,NA,3,1571235126361,1,This is an,1.5,These are both,eagle,NA,NA,warmup2
563,NA,hummingbird,NA,NA,12,warmup/eagle.jpg,hummingbird,This is a,NA,1,birds,jessica,NA,eagle,NA,yes,Please label the pictures below.,NA,NA,25,NA,NA,NA,warmup/colibri.jpg,birds,graduated_high_school,NA,NA,English,male,NA,birds,NA,3,1571235126361,2,This is an,1.5,These are both,eagle,NA,NA,warmup2
563,What do you think your friend meant?,NA,It is small relative to other,images/flower-parade-dandelion.png,12,NA,NA,NA,NA,1,flowers,jessica,NA,NA,1,yes,"You and your friend see another dandelion (not pictured), and your friend says: <br/><b>That flower is small.</b>",predicative,NA,25,flowers,NA,0,NA,NA,graduated_high_school,small,NA,English,male,NA,NA,You and your friend see the following:,1,1571235126361,NA,NA,1.5,NA,NA,NA,congr,custom_main_text2
563,What do you think your friend meant?,NA,It is big relative to other,images/bird-parade-eagle.png,12,NA,NA,NA,NA,1,birds,jessica,NA,NA,1,yes,"You and your friend see another eagle (not pictured), and your friend says: <br/><b>That one is big.</b>",predicative,NA,25,birds,NA,2,NA,NA,graduated_high_school,big,NA,English,male,NA,NA,You and your friend see the following:,2,1571235126361,NA,NA,1.5,NA,NA,NA,congr,custom_main_text2
563,What do you think your friend meant?,NA,It is small relative to other,images/fish-parade-goldfish.png,12,NA,NA,NA,NA,1,fish,jessica,NA,NA,1,yes,"You and your friend see another goldfish (not pictured), and your friend says: <br/><b>That goldfish is small.</b>",predicative,NA,25,fish,NA,1,NA,NA,graduated_high_school,small,NA,English,male,NA,NA,You and your friend see the following:,3,1571235126361,NA,NA,1.5,NA,NA,NA,congr,custom_main_text2
562,<i>What do you think Speaker A meant? </i>,NA,The Empire State Building is tall relative to other,NA,12,NA,NA,NA,no,1,NA,Linda,1,NA,NA,yes,NA,NA,"<b> Speaker A: ""The Empire State Building is tall.""</b>",31,buildings,NA,NA,NA,NA,graduated_college,NA,comp_class_warmup,English,male,NA,NA,In the main trials you will be asked to rephrase something a person said. The utterance will contain a word that is <i>relative</i> and your task is to figure out what it is relative to. <br /> <br /> For example: <br /><br />,1,1571234276836,1,NA,1,NA,NA,"buildings, scyscrapers, houses, constructions (choose one)",NA,comp_class_warmup
562,NA,sailfish,NA,NA,12,warmup/goldfish.png,swordfish,This is a,no,1,fish,Linda,NA,goldfish,NA,yes,Please label the pictures below.,NA,NA,31,NA,NA,NA,warmup/swordfish.jpg,fish,graduated_college,NA,NA,English,male,NA,fish,NA,1,1571234276836,1,This is a,1,These are both,goldfish,NA,NA,warmup1
562,NA,sailfish,NA,NA,12,warmup/goldfish.png,swordfish,This is a,no,1,fish,Linda,NA,goldfish,NA,yes,Please label the pictures below.,NA,NA,31,NA,NA,NA,warmup/swordfish.jpg,fish,graduated_college,NA,NA,English,male,NA,fish,NA,1,1571234276836,2,This is a,1,These are both,goldfish,NA,NA,warmup1
562,NA,sail fish,NA,NA,12,warmup/goldfish.png,swordfish,This is a,no,1,fish,Linda,NA,goldfish,NA,yes,Please label the pictures below.,NA,NA,31,NA,NA,NA,warmup/swordfish.jpg,fish,graduated_college,NA,NA,English,male,NA,fish,NA,1,1571234276836,3,This is a,1,These are both,goldf ish,NA,NA,warmup1
562,NA,sail fish,NA,NA,12,warmup/goldfish.png,swordfish,This is a,no,1,fish,Linda,NA,goldfish,NA,yes,Please label the pictures below.,NA,NA,31,NA,NA,NA,warmup/swordfish.jpg,fish,graduated_college,NA,NA,English,male,NA,fish,NA,1,1571234276836,4,This is a,1,These are both,goldf ish,NA,NA,warmup1
562,NA,sailfish,NA,NA,12,warmup/goldfish.png,swordfish,This is a,no,1,fish,Linda,NA,goldfish,NA,yes,Please label the pictures below.,NA,NA,31,NA,NA,NA,warmup/swordfish.jpg,fish,graduated_college,NA,NA,English,male,NA,fish,NA,1,1571234276836,5,This is a,1,These are both,goldfish,NA,NA,warmup1
562,NA,swordfish,NA,NA,12,warmup/goldfish.png,swordfish,This is a,no,1,fish,Linda,NA,goldfish,NA,yes,Please label the pictures below.,NA,NA,31,NA,NA,NA,warmup/swordfish.jpg,fish,graduated_college,NA,NA,English,male,NA,fish,NA,1,1571234276836,6,This is a,1,These are both,goldfish,NA,NA,warmup1
562,NA,chihuahua,NA,NA,12,warmup/doberman.png,chihuahua,This is a,no,1,dogs,Linda,NA,doberman,NA,yes,Please label the pictures below.,NA,NA,31,NA,NA,NA,warmup/chihuahua.jpg,dogs,graduated_college,NA,NA,English,male,NA,dogs,NA,2,1571234276836,1,This is a,1,These are both,doberman,NA,NA,warmup1
562,NA,dandellion,NA,NA,12,warmup/sunflower.png,dandelion,This is a,no,1,flowers,Linda,NA,sunflower,NA,yes,Please label the pictures below.,NA,NA,31,NA,NA,NA,warmup/dandelion.jpg,flowers,graduated_college,NA,NA,English,male,NA,flowers,NA,3,1571234276836,1,This is a,1,These are both,sunflower,NA,NA,warmup1
562,NA,dandelion,NA,NA,12,warmup/sunflower.png,dandelion,This is a,no,1,flowers,Linda,NA,sunflower,NA,yes,Please label the pictures below.,NA,NA,31,NA,NA,NA,warmup/dandelion.jpg,flowers,graduated_college,NA,NA,English,male,NA,flowers,NA,3,1571234276836,2,This is a,1,These are both,sunflower,NA,NA,warmup1
562,What do you think your friend meant?,NA,It is big relative to other,images/fish-parade-basic.png,12,NA,NA,NA,no,1,fish,Linda,NA,NA,0,yes,"You and your friend see another swordfish (not pictured), and your friend says: <br/><b>That swordfish is big.</b>",predicative,NA,31,fish,NA,1,NA,NA,graduated_college,big,NA,English,male,NA,NA,You and your friend see the following:,1,1571234276836,NA,NA,1,NA,NA,NA,basic,custom_main_text1
562,What do you think your friend meant?,NA,It is small relative to other,images/flower-parade-basic.png,12,NA,NA,NA,no,1,flowers,Linda,NA,NA,0,yes,"You and your friend see another dandelion (not pictured), and your friend says: <br/><b>That one is small.</b>",predicative,NA,31,flowers,NA,2,NA,NA,graduated_college,small,NA,English,male,NA,NA,You and your friend see the following:,2,1571234276836,NA,NA,1,NA,NA,NA,basic,custom_main_text1
562,What do you think your friend meant?,NA,It is small relative to other,images/dog-parade-basic.png,12,NA,NA,NA,no,1,dogs1,Linda,NA,NA,0,yes,"You and your friend see another chihuahua (not pictured), and your friend says: <br/><b>That dog is small.</b>",predicative,NA,31,dogs,NA,0,NA,NA,graduated_college,small,NA,English,male,NA,NA,You and your friend see the following:,3,1571234276836,NA,NA,1,NA,NA,NA,basic,custom_main_text1
562,NA,tree,NA,NA,12,warmup/bonsai.jpg,redwood or sequoia (choose one),This is a,no,1,trees,Linda,NA,bonsai,NA,yes,Please label the pictures below.,NA,NA,31,NA,NA,NA,warmup/sequoia.png,tree,graduated_college,NA,NA,English,male,NA,trees,NA,1,1571234276836,1,This is a,1,These are both,tree,NA,NA,warmup2
562,NA,redwood,NA,NA,12,warmup/bonsai.jpg,redwood or sequoia (choose one),This is a,no,1,trees,Linda,NA,bonsai,NA,yes,Please label the pictures below.,NA,NA,31,NA,NA,NA,warmup/sequoia.png,tree,graduated_college,NA,NA,English,male,NA,trees,NA,1,1571234276836,2,This is a,1,These are both,bonsai,NA,NA,warmup2
562,NA,redwood,NA,NA,12,warmup/bonsai.jpg,redwood or sequoia (choose one),This is a,no,1,trees,Linda,NA,bonsai,NA,yes,Please label the pictures below.,NA,NA,31,NA,NA,NA,warmup/sequoia.png,trees,graduated_college,NA,NA,English,male,NA,trees,NA,1,1571234276836,3,This is a,1,These are both,bonsai,NA,NA,warmup2
562,NA,pug,NA,NA,12,warmup/great-dane.jpg,pug,This is a,no,1,dogs,Linda,NA,great dane,NA,yes,Please label the pictures below.,NA,NA,31,NA,NA,NA,warmup/pug.jpg,dogs,graduated_college,NA,NA,English,male,NA,dogs,NA,2,1571234276836,1,This is a,1,These are both,labrador,NA,NA,warmup2
562,NA,pug,NA,NA,12,warmup/great-dane.jpg,pug,This is a,no,1,dogs,Linda,NA,great dane,NA,yes,Please label the pictures below.,NA,NA,31,NA,NA,NA,warmup/pug.jpg,dogs,graduated_college,NA,NA,English,male,NA,dogs,NA,2,1571234276836,2,This is a,1,These are both,great dane,NA,NA,warmup2
562,NA,pecker,NA,NA,12,warmup/eagle.jpg,hummingbird,This is a,no,1,birds,Linda,NA,eagle,NA,yes,Please label the pictures below.,NA,NA,31,NA,NA,NA,warmup/colibri.jpg,birds,graduated_college,NA,NA,English,male,NA,birds,NA,3,1571234276836,1,This is an,1,These are both,eagle,NA,NA,warmup2
562,NA,hummingbird,NA,NA,12,warmup/eagle.jpg,hummingbird,This is a,no,1,birds,Linda,NA,eagle,NA,yes,Please label the pictures below.,NA,NA,31,NA,NA,NA,warmup/colibri.jpg,birds,graduated_college,NA,NA,English,male,NA,birds,NA,3,1571234276836,2,This is an,1,These are both,eagle,NA,NA,warmup2
562,What do you think your friend meant?,NA,It is small relative to other,images/bird-parade-hummingbird.png,12,NA,NA,NA,no,1,birds,Linda,NA,NA,1,yes,"You and your friend see another hummingbird (not pictured), and your friend says: <br/><b>That one is small.</b>",predicative,NA,31,birds,NA,2,NA,NA,graduated_college,small,NA,English,male,NA,NA,You and your friend see the following:,1,1571234276836,NA,NA,1,NA,NA,NA,congr,custom_main_text2
562,What do you think your friend meant?,NA,It is big relative to other,images/dog-parade-great-dane.png,12,NA,NA,NA,no,1,dogs2,Linda,NA,NA,1,yes,"You and your friend see another great dane (not pictured), and your friend says: <br/><b>That dog is big.</b>",predicative,NA,31,dogs,NA,0,NA,NA,graduated_college,big,NA,English,male,NA,NA,You and your friend see the following:,2,1571234276836,NA,NA,1,NA,NA,NA,congr,custom_main_text2
562,What do you think your friend meant?,NA,It is big relative to other,images/tree-parade-redwood.png,12,NA,NA,NA,no,1,trees,Linda,NA,NA,1,yes,"You and your friend see another redwood (not pictured), and your friend says: <br/><b>That redwood is big.</b>",predicative,NA,31,tree,NA,1,NA,NA,graduated_college,big,NA,English,male,NA,NA,You and your friend see the following:,3,1571234276836,NA,NA,1,NA,NA,NA,congr,custom_main_text2
559,<i>What do you think Speaker A meant? </i>,NA,The Empire State Building is tall relative to other,NA,12,NA,NA,NA,none,2,NA,jessica,1,NA,NA,yes,NA,NA,"<b> Speaker A: ""The Empire State Building is tall.""</b>",32,buildings,NA,NA,NA,NA,graduated_college,NA,comp_class_warmup,English,female,NA,NA,In the main trials you will be asked to rephrase something a person said. The utterance will contain a word that is <i>relative</i> and your task is to figure out what it is relative to. <br /> <br /> For example: <br /><br />,1,1571234276805,1,NA,1,NA,NA,"buildings, scyscrapers, houses, constructions (choose one)",NA,comp_class_warmup
559,NA,sword fish,NA,NA,12,warmup/goldfish.png,swordfish,This is a,none,2,fish,jessica,NA,goldfish,NA,yes,Please label the pictures below.,NA,NA,32,NA,NA,NA,warmup/swordfish.jpg,fish,graduated_college,NA,NA,English,female,NA,fish,NA,1,1571234276805,1,This is a,1,These are both,gold fish,NA,NA,warmup1
559,NA,swordfish,NA,NA,12,warmup/goldfish.png,swordfish,This is a,none,2,fish,jessica,NA,goldfish,NA,yes,Please label the pictures below.,NA,NA,32,NA,NA,NA,warmup/swordfish.jpg,fish,graduated_college,NA,NA,English,female,NA,fish,NA,1,1571234276805,2,This is a,1,These are both,goldfish,NA,NA,warmup1
559,NA,oak tree,NA,NA,12,warmup/bonsai.jpg,redwood or sequoia (choose one),This is a,none,2,trees,jessica,NA,bonsai,NA,yes,Please label the pictures below.,NA,NA,32,NA,NA,NA,warmup/sequoia.png,trees,graduated_college,NA,NA,English,female,NA,trees,NA,2,1571234276805,1,This is a,1,These are both,bonsai tree,NA,NA,warmup1
559,NA,redwood,NA,NA,12,warmup/bonsai.jpg,redwood or sequoia (choose one),This is a,none,2,trees,jessica,NA,bonsai,NA,yes,Please label the pictures below.,NA,NA,32,NA,NA,NA,warmup/sequoia.png,trees,graduated_college,NA,NA,English,female,NA,trees,NA,2,1571234276805,2,This is a,1,These are both,bonsai,NA,NA,warmup1
559,NA,blue jay,NA,NA,12,warmup/eagle.jpg,hummingbird,This is a,none,2,birds,jessica,NA,eagle,NA,yes,Please label the pictures below.,NA,NA,32,NA,NA,NA,warmup/colibri.jpg,birds,graduated_college,NA,NA,English,female,NA,birds,NA,3,1571234276805,1,This is an,1,These are both,eagle,NA,NA,warmup1
559,NA,hummingbird,NA,NA,12,warmup/eagle.jpg,hummingbird,This is a,none,2,birds,jessica,NA,eagle,NA,yes,Please label the pictures below.,NA,NA,32,NA,NA,NA,warmup/colibri.jpg,birds,graduated_college,NA,NA,English,female,NA,birds,NA,3,1571234276805,2,This is an,1,These are both,eagle,NA,NA,warmup1
