submission_id,question,response1,sentence_left,context_picture,pic,experiment_id,picture2,correct1,question1,problems,enjoyment,item,botresponse,trials,correct2,pic_spec,understand,text,condition,sentence,age,response,comments,ref_spec,picture1,response3,education,target_size,name,languages,sex,RT,correct3,context,trial_number,startTime,attempts,question3,fairprice,question2,response2,correct,adj_cond,trial_name,utterance
701,<i>What do you think Speaker A meant? </i>,NA,The Empire State Building is tall relative to other,NA,NA,15,NA,NA,NA,None that I'm aware of.,2,NA,elizabeth,1,NA,NA,yes,NA,NA,"<b> Speaker A: ""The Empire State Building is tall.""</b>",39,buildings,NA,NA,NA,NA,graduated_college,NA,comp_class_warmup,English,male,NA,NA,In the main trials you will be asked to rephrase something a person said. The utterance will contain a word that is <i>relative</i> and your task is to figure out what it is relative to. <br /> <br /> For example: <br /><br />,1,1571853798388,1,NA,1,NA,NA,"buildings, skyscrapers, houses, constructions (choose one)",NA,comp_class_warmup,NA
701,NA,tall tree,NA,NA,NA,15,warmup/bonsai.jpg,redwood or sequoia (choose one),This is a,None that I'm aware of.,2,trees,elizabeth,NA,bonsai,NA,yes,Please label the pictures below.,NA,NA,39,NA,NA,NA,warmup/sequoia.png,trees,graduated_college,NA,NA,English,male,NA,trees,NA,1,1571853798388,1,This is a,1,These are both,short tree,NA,NA,warmup1,NA
701,NA,redwood,NA,NA,NA,15,warmup/bonsai.jpg,redwood or sequoia (choose one),This is a,None that I'm aware of.,2,trees,elizabeth,NA,bonsai,NA,yes,Please label the pictures below.,NA,NA,39,NA,NA,NA,warmup/sequoia.png,trees,graduated_college,NA,NA,English,male,NA,trees,NA,1,1571853798388,2,This is a,1,These are both,bonsai,NA,NA,warmup1,NA
701,NA,hummingbird,NA,NA,NA,15,warmup/eagle.jpg,hummingbird,This is a,None that I'm aware of.,2,birds,elizabeth,NA,eagle,NA,yes,Please label the pictures below.,NA,NA,39,NA,NA,NA,warmup/colibri.jpg,birds,graduated_college,NA,NA,English,male,NA,birds,NA,2,1571853798388,1,This is an,1,These are both,eagle,NA,NA,warmup1,NA
701,NA,swordfish,NA,NA,NA,15,warmup/goldfish.png,swordfish,This is a,None that I'm aware of.,2,fish,elizabeth,NA,goldfish,NA,yes,Please label the pictures below.,NA,NA,39,NA,NA,NA,warmup/swordfish.jpg,fish,graduated_college,NA,NA,English,male,NA,fish,NA,3,1571853798388,1,This is a,1,These are both,goldfish,NA,NA,warmup1,NA
701,What do you think your friend meant?,NA,It is small relative to other,images/tree-parade-bonsai.png,images/bonsai.png,15,NA,NA,NA,None that I'm aware of.,2,trees,elizabeth,NA,NA,1,yes,"Your friend runs far ahead of you, and you see him in the distance:",predicative,NA,39,trees,NA,0,NA,NA,graduated_college,small,NA,English,male,NA,NA,You and your friend see the following:,1,1571853798388,NA,NA,1,NA,NA,NA,congr,custom_main_text1,Your friend says: <br/><b>That tree is small.</b>
701,What do you think your friend meant?,NA,It is small relative to other,images/bird-parade-basic.png,images/hummingbird.png,15,NA,NA,NA,None that I'm aware of.,2,birds,elizabeth,NA,NA,0,yes,"Your friend runs far ahead of you, and you see him in the distance:",predicative,NA,39,birds,NA,0,NA,NA,graduated_college,small,NA,English,male,NA,NA,You and your friend see the following:,2,1571853798388,NA,NA,1,NA,NA,NA,basic,custom_main_text1,Your friend says: <br/><b>That bird is small.</b>
701,What do you think your friend meant?,NA,It is big relative to other,images/fish-parade-swordfish.png,images/swordfish.png,15,NA,NA,NA,None that I'm aware of.,2,fish,elizabeth,NA,NA,1,yes,"Your friend runs far ahead of you, and you see him in the distance:",predicative,NA,39,fish,NA,0,NA,NA,graduated_college,big,NA,English,male,NA,NA,You and your friend see the following:,3,1571853798388,NA,NA,1,NA,NA,NA,congr,custom_main_text1,Your friend says: <br/><b>That fish is big.</b>
701,NA,dandelion,NA,NA,NA,15,warmup/sunflower.png,dandelion,This is a,None that I'm aware of.,2,flowers,elizabeth,NA,sunflower,NA,yes,Please label the pictures below.,NA,NA,39,NA,NA,NA,warmup/dandelion.jpg,flowers,graduated_college,NA,NA,English,male,NA,flowers,NA,1,1571853798388,1,This is a,1,These are both,sunflower,NA,NA,warmup2,NA
701,NA,bulldog,NA,NA,NA,15,warmup/great-dane.jpg,pug,This is a,None that I'm aware of.,2,dogs,elizabeth,NA,great dane,NA,yes,Please label the pictures below.,NA,NA,39,NA,NA,NA,warmup/pug.jpg,dogs,graduated_college,NA,NA,English,male,NA,dogs,NA,2,1571853798388,1,This is a,1,These are both,greyhound,NA,NA,warmup2,NA
701,NA,pug,NA,NA,NA,15,warmup/great-dane.jpg,pug,This is a,None that I'm aware of.,2,dogs,elizabeth,NA,great dane,NA,yes,Please label the pictures below.,NA,NA,39,NA,NA,NA,warmup/pug.jpg,dogs,graduated_college,NA,NA,English,male,NA,dogs,NA,2,1571853798388,2,This is a,1,These are both,great dane,NA,NA,warmup2,NA
701,NA,chihuahua,NA,NA,NA,15,warmup/doberman.png,chihuahua,This is a,None that I'm aware of.,2,dogs,elizabeth,NA,doberman,NA,yes,Please label the pictures below.,NA,NA,39,NA,NA,NA,warmup/chihuahua.jpg,dogs,graduated_college,NA,NA,English,male,NA,dogs,NA,3,1571853798388,1,This is a,1,These are both,doberman,NA,NA,warmup2,NA
701,What do you think your friend meant?,NA,It is big relative to other,images/flower-parade-basic.png,images/sunflower.png,15,NA,NA,NA,None that I'm aware of.,2,flowers,elizabeth,NA,NA,0,yes,"Your friend runs far ahead of you, and you see him in the distance:",predicative,NA,39,flowers,NA,0,NA,NA,graduated_college,big,NA,English,male,NA,NA,You and your friend see the following:,1,1571853798388,NA,NA,1,NA,NA,NA,basic,custom_main_text2,Your friend says: <br/><b>That flower is big.</b>
701,What do you think your friend meant?,NA,It is small relative to other,images/dog-parade-pug.png,images/pug.png,15,NA,NA,NA,None that I'm aware of.,2,dogs2,elizabeth,NA,NA,1,yes,"Your friend runs far ahead of you, and you see him in the distance:",predicative,NA,39,dogs,NA,0,NA,NA,graduated_college,small,NA,English,male,NA,NA,You and your friend see the following:,2,1571853798388,NA,NA,1,NA,NA,NA,congr,custom_main_text2,Your friend says: <br/><b>That dog is small.</b>
701,What do you think your friend meant?,NA,It is big relative to other,images/dog-parade-basic.png,images/doberman.png,15,NA,NA,NA,None that I'm aware of.,2,dogs1,elizabeth,NA,NA,0,yes,"Your friend runs far ahead of you, and you see him in the distance:",predicative,NA,39,dogs,NA,0,NA,NA,graduated_college,big,NA,English,male,NA,NA,You and your friend see the following:,3,1571853798388,NA,NA,1,NA,NA,NA,basic,custom_main_text2,Your friend says: <br/><b>That dog is big.</b>
694,<i>What do you think Speaker A meant? </i>,NA,The Empire State Building is tall relative to other,NA,NA,15,NA,NA,NA,Nope,2,NA,Jessica,1,NA,NA,yes,NA,NA,"<b> Speaker A: ""The Empire State Building is tall.""</b>",40,buildings,NA,NA,NA,NA,graduated_college,NA,comp_class_warmup,English,female,NA,NA,In the main trials you will be asked to rephrase something a person said. The utterance will contain a word that is <i>relative</i> and your task is to figure out what it is relative to. <br /> <br /> For example: <br /><br />,1,1571852764099,1,NA,1,NA,NA,"buildings, skyscrapers, houses, constructions (choose one)",NA,comp_class_warmup,NA
694,NA,small dog,NA,NA,NA,15,warmup/doberman.png,chihuahua,This is a,Nope,2,dogs,Jessica,NA,doberman,NA,yes,Please label the pictures below.,NA,NA,40,NA,NA,NA,warmup/chihuahua.jpg,dogs,graduated_college,NA,NA,English,female,NA,dogs,NA,1,1571852764099,1,This is a,1,These are both,large dog,NA,NA,warmup1,NA
694,NA,chihuahua,NA,NA,NA,15,warmup/doberman.png,chihuahua,This is a,Nope,2,dogs,Jessica,NA,doberman,NA,yes,Please label the pictures below.,NA,NA,40,NA,NA,NA,warmup/chihuahua.jpg,dogs,graduated_college,NA,NA,English,female,NA,dogs,NA,1,1571852764099,2,This is a,1,These are both,doberman,NA,NA,warmup1,NA
694,NA,humingbird,NA,NA,NA,15,warmup/eagle.jpg,hummingbird,This is a,Nope,2,birds,Jessica,NA,eagle,NA,yes,Please label the pictures below.,NA,NA,40,NA,NA,NA,warmup/colibri.jpg,birds,graduated_college,NA,NA,English,female,NA,birds,NA,2,1571852764099,1,This is an,1,These are both,eagle,NA,NA,warmup1,NA
694,NA,hummingbird,NA,NA,NA,15,warmup/eagle.jpg,hummingbird,This is a,Nope,2,birds,Jessica,NA,eagle,NA,yes,Please label the pictures below.,NA,NA,40,NA,NA,NA,warmup/colibri.jpg,birds,graduated_college,NA,NA,English,female,NA,birds,NA,2,1571852764099,2,This is an,1,These are both,eagle,NA,NA,warmup1,NA
694,NA,swordfish,NA,NA,NA,15,warmup/goldfish.png,swordfish,This is a,Nope,2,fish,Jessica,NA,goldfish,NA,yes,Please label the pictures below.,NA,NA,40,NA,NA,NA,warmup/swordfish.jpg,fish,graduated_college,NA,NA,English,female,NA,fish,NA,3,1571852764099,1,This is a,1,These are both,goaldfish,NA,NA,warmup1,NA
694,NA,swordfish,NA,NA,NA,15,warmup/goldfish.png,swordfish,This is a,Nope,2,fish,Jessica,NA,goldfish,NA,yes,Please label the pictures below.,NA,NA,40,NA,NA,NA,warmup/swordfish.jpg,fish,graduated_college,NA,NA,English,female,NA,fish,NA,3,1571852764099,2,This is a,1,These are both,goldfish,NA,NA,warmup1,NA
694,What do you think your friend meant?,NA,It is big relative to other,images/fish-parade-basic.png,images/swordfish.png,15,NA,NA,NA,Nope,2,fish,Jessica,NA,NA,0,yes,"Your friend runs far ahead of you, and you see him in the distance:",predicative,NA,40,fish,NA,0,NA,NA,graduated_college,big,NA,English,female,NA,NA,You and your friend see the following:,1,1571852764099,NA,NA,1,NA,NA,NA,basic,custom_main_text1,Your friend says: <br/><b>That fish is big.</b>
694,What do you think your friend meant?,NA,It is big relative to other,images/dog-parade-basic.png,images/doberman.png,15,NA,NA,NA,Nope,2,dogs1,Jessica,NA,NA,0,yes,"Your friend runs far ahead of you, and you see him in the distance:",predicative,NA,40,dogs,NA,0,NA,NA,graduated_college,big,NA,English,female,NA,NA,You and your friend see the following:,2,1571852764099,NA,NA,1,NA,NA,NA,basic,custom_main_text1,Your friend says: <br/><b>That dog is big.</b>
694,What do you think your friend meant?,NA,It is small relative to other,images/bird-parade-hummingbird.png,images/hummingbird.png,15,NA,NA,NA,Nope,2,birds,Jessica,NA,NA,1,yes,"Your friend runs far ahead of you, and you see him in the distance:",predicative,NA,40,birds,NA,0,NA,NA,graduated_college,small,NA,English,female,NA,NA,You and your friend see the following:,3,1571852764099,NA,NA,1,NA,NA,NA,congr,custom_main_text1,Your friend says: <br/><b>That bird is small.</b>
694,NA,sequoia,NA,NA,NA,15,warmup/bonsai.jpg,redwood or sequoia (choose one),This is a,Nope,2,trees,Jessica,NA,bonsai,NA,yes,Please label the pictures below.,NA,NA,40,NA,NA,NA,warmup/sequoia.png,trees,graduated_college,NA,NA,English,female,NA,trees,NA,1,1571852764099,1,This is a,1,These are both,bonsai,NA,NA,warmup2,NA
694,NA,pug,NA,NA,NA,15,warmup/great-dane.jpg,pug,This is a,Nope,2,dogs,Jessica,NA,great dane,NA,yes,Please label the pictures below.,NA,NA,40,NA,NA,NA,warmup/pug.jpg,dogs,graduated_college,NA,NA,English,female,NA,dogs,NA,2,1571852764099,1,This is a,1,These are both,great dane,NA,NA,warmup2,NA
694,NA,dandelion,NA,NA,NA,15,warmup/sunflower.png,dandelion,This is a,Nope,2,flowers,Jessica,NA,sunflower,NA,yes,Please label the pictures below.,NA,NA,40,NA,NA,NA,warmup/dandelion.jpg,flowers,graduated_college,NA,NA,English,female,NA,flowers,NA,3,1571852764099,1,This is a,1,These are both,sunflower,NA,NA,warmup2,NA
694,What do you think your friend meant?,NA,It is small relative to other,images/tree-parade-basic.png,images/bonsai.png,15,NA,NA,NA,Nope,2,trees,Jessica,NA,NA,0,yes,"Your friend runs far ahead of you, and you see him in the distance:",predicative,NA,40,trees,NA,0,NA,NA,graduated_college,small,NA,English,female,NA,NA,You and your friend see the following:,1,1571852764099,NA,NA,1,NA,NA,NA,basic,custom_main_text2,Your friend says: <br/><b>That tree is small.</b>
694,What do you think your friend meant?,NA,It is big relative to other,images/dog-parade-great-dane.png,images/great-dane.png,15,NA,NA,NA,Nope,2,dogs2,Jessica,NA,NA,1,yes,"Your friend runs far ahead of you, and you see him in the distance:",predicative,NA,40,dogs,NA,0,NA,NA,graduated_college,big,NA,English,female,NA,NA,You and your friend see the following:,2,1571852764099,NA,NA,1,NA,NA,NA,congr,custom_main_text2,Your friend says: <br/><b>That dog is big.</b>
694,What do you think your friend meant?,NA,It is small relative to other,images/flower-parade-dandelion.png,images/dandelion.png,15,NA,NA,NA,Nope,2,flowers,Jessica,NA,NA,1,yes,"Your friend runs far ahead of you, and you see him in the distance:",predicative,NA,40,flowers,NA,0,NA,NA,graduated_college,small,NA,English,female,NA,NA,You and your friend see the following:,3,1571852764099,NA,NA,1,NA,NA,NA,congr,custom_main_text2,Your friend says: <br/><b>That flower is small.</b>
690,<i>What do you think Speaker A meant? </i>,NA,The Empire State Building is tall relative to other,NA,NA,15,NA,NA,NA,Nope everything worked fine.,1,NA,Sarah,1,NA,NA,confused,NA,NA,"<b> Speaker A: ""The Empire State Building is tall.""</b>",23,buildings,Thank you!,NA,NA,NA,graduated_high_school,NA,comp_class_warmup,English,male,NA,NA,In the main trials you will be asked to rephrase something a person said. The utterance will contain a word that is <i>relative</i> and your task is to figure out what it is relative to. <br /> <br /> For example: <br /><br />,1,1571852317429,1,NA,1.5,NA,NA,"buildings, skyscrapers, houses, constructions (choose one)",NA,comp_class_warmup,NA
690,NA,pug,NA,NA,NA,15,warmup/great-dane.jpg,pug,This is a,Nope everything worked fine.,1,dogs,Sarah,NA,great dane,NA,confused,Please label the pictures below.,NA,NA,23,NA,Thank you!,NA,warmup/pug.jpg,dogs,graduated_high_school,NA,NA,English,male,NA,dogs,NA,1,1571852317429,1,This is a,1.5,These are both,great dane,NA,NA,warmup1,NA
690,NA,poodle,NA,NA,NA,15,warmup/doberman.png,chihuahua,This is a,Nope everything worked fine.,1,dogs,Sarah,NA,doberman,NA,confused,Please label the pictures below.,NA,NA,23,NA,Thank you!,NA,warmup/chihuahua.jpg,dog,graduated_high_school,NA,NA,English,male,NA,dogs,NA,2,1571852317429,1,This is a,1.5,These are both,dovermen,NA,NA,warmup1,NA
690,NA,chihuahua,NA,NA,NA,15,warmup/doberman.png,chihuahua,This is a,Nope everything worked fine.,1,dogs,Sarah,NA,doberman,NA,confused,Please label the pictures below.,NA,NA,23,NA,Thank you!,NA,warmup/chihuahua.jpg,dogs,graduated_high_school,NA,NA,English,male,NA,dogs,NA,2,1571852317429,2,This is a,1.5,These are both,doberman,NA,NA,warmup1,NA
690,NA,humming bird,NA,NA,NA,15,warmup/eagle.jpg,hummingbird,This is a,Nope everything worked fine.,1,birds,Sarah,NA,eagle,NA,confused,Please label the pictures below.,NA,NA,23,NA,Thank you!,NA,warmup/colibri.jpg,birds,graduated_high_school,NA,NA,English,male,NA,birds,NA,3,1571852317429,1,This is an,1.5,These are both,eagle,NA,NA,warmup1,NA
690,NA,hummingbird,NA,NA,NA,15,warmup/eagle.jpg,hummingbird,This is a,Nope everything worked fine.,1,birds,Sarah,NA,eagle,NA,confused,Please label the pictures below.,NA,NA,23,NA,Thank you!,NA,warmup/colibri.jpg,birds,graduated_high_school,NA,NA,English,male,NA,birds,NA,3,1571852317429,2,This is an,1.5,These are both,eagle,NA,NA,warmup1,NA
690,What do you think your friend meant?,NA,It is big relative to other,images/bird-parade-basic.png,images/eagle.png,15,NA,NA,NA,Nope everything worked fine.,1,birds,Sarah,NA,NA,0,confused,"Your friend runs far ahead of you, and you see him in the distance:",predicative,NA,23,birds,Thank you!,0,NA,NA,graduated_high_school,big,NA,English,male,NA,NA,You and your friend see the following:,1,1571852317429,NA,NA,1.5,NA,NA,NA,basic,custom_main_text1,Your friend says: <br/><b>That bird is big.</b>
690,What do you think your friend meant?,NA,It is big relative to other,images/dog-parade-basic.png,images/doberman.png,15,NA,NA,NA,Nope everything worked fine.,1,dogs1,Sarah,NA,NA,0,confused,"Your friend runs far ahead of you, and you see him in the distance:",predicative,NA,23,dogs,Thank you!,0,NA,NA,graduated_high_school,big,NA,English,male,NA,NA,You and your friend see the following:,2,1571852317429,NA,NA,1.5,NA,NA,NA,basic,custom_main_text1,Your friend says: <br/><b>That dog is big.</b>
690,What do you think your friend meant?,NA,It is big relative to other,images/dog-parade-great-dane.png,images/great-dane.png,15,NA,NA,NA,Nope everything worked fine.,1,dogs2,Sarah,NA,NA,1,confused,"Your friend runs far ahead of you, and you see him in the distance:",predicative,NA,23,dogs,Thank you!,0,NA,NA,graduated_high_school,big,NA,English,male,NA,NA,You and your friend see the following:,3,1571852317429,NA,NA,1.5,NA,NA,NA,congr,custom_main_text1,Your friend says: <br/><b>That dog is big.</b>
690,NA,redwood,NA,NA,NA,15,warmup/bonsai.jpg,redwood or sequoia (choose one),This is a,Nope everything worked fine.,1,trees,Sarah,NA,bonsai,NA,confused,Please label the pictures below.,NA,NA,23,NA,Thank you!,NA,warmup/sequoia.png,trees,graduated_high_school,NA,NA,English,male,NA,trees,NA,1,1571852317429,1,This is a,1.5,These are both,sapling,NA,NA,warmup2,NA
690,NA,redwood,NA,NA,NA,15,warmup/bonsai.jpg,redwood or sequoia (choose one),This is a,Nope everything worked fine.,1,trees,Sarah,NA,bonsai,NA,confused,Please label the pictures below.,NA,NA,23,NA,Thank you!,NA,warmup/sequoia.png,trees,graduated_high_school,NA,NA,English,male,NA,trees,NA,1,1571852317429,2,This is a,1.5,These are both,bonsai,NA,NA,warmup2,NA
690,NA,dandelion,NA,NA,NA,15,warmup/sunflower.png,dandelion,This is a,Nope everything worked fine.,1,flowers,Sarah,NA,sunflower,NA,confused,Please label the pictures below.,NA,NA,23,NA,Thank you!,NA,warmup/dandelion.jpg,flowers,graduated_high_school,NA,NA,English,male,NA,flowers,NA,2,1571852317429,1,This is a,1.5,These are both,sunflower,NA,NA,warmup2,NA
690,NA,swordfish,NA,NA,NA,15,warmup/goldfish.png,swordfish,This is a,Nope everything worked fine.,1,fish,Sarah,NA,goldfish,NA,confused,Please label the pictures below.,NA,NA,23,NA,Thank you!,NA,warmup/swordfish.jpg,fish,graduated_high_school,NA,NA,English,male,NA,fish,NA,3,1571852317429,1,This is a,1.5,These are both,goldfish,NA,NA,warmup2,NA
690,What do you think your friend meant?,NA,It is small relative to other,images/flower-parade-dandelion.png,images/dandelion.png,15,NA,NA,NA,Nope everything worked fine.,1,flowers,Sarah,NA,NA,1,confused,"Your friend runs far ahead of you, and you see him in the distance:",predicative,NA,23,dandelions,Thank you!,0,NA,NA,graduated_high_school,small,NA,English,male,NA,NA,You and your friend see the following:,1,1571852317429,NA,NA,1.5,NA,NA,NA,congr,custom_main_text2,Your friend says: <br/><b>That flower is small.</b>
690,What do you think your friend meant?,NA,It is small relative to other,images/tree-parade-bonsai.png,images/bonsai.png,15,NA,NA,NA,Nope everything worked fine.,1,trees,Sarah,NA,NA,1,confused,"Your friend runs far ahead of you, and you see him in the distance:",predicative,NA,23,bonsais,Thank you!,0,NA,NA,graduated_high_school,small,NA,English,male,NA,NA,You and your friend see the following:,2,1571852317429,NA,NA,1.5,NA,NA,NA,congr,custom_main_text2,Your friend says: <br/><b>That tree is small.</b>
690,What do you think your friend meant?,NA,It is small relative to other,images/fish-parade-basic.png,images/goldfish.png,15,NA,NA,NA,Nope everything worked fine.,1,fish,Sarah,NA,NA,0,confused,"Your friend runs far ahead of you, and you see him in the distance:",predicative,NA,23,swordfish,Thank you!,0,NA,NA,graduated_high_school,small,NA,English,male,NA,NA,You and your friend see the following:,3,1571852317429,NA,NA,1.5,NA,NA,NA,basic,custom_main_text2,Your friend says: <br/><b>That fish is small.</b>
688,<i>What do you think Speaker A meant? </i>,NA,The Empire State Building is tall relative to other,NA,NA,15,NA,NA,NA,no,2,NA,jessica,1,NA,NA,yes,NA,NA,"<b> Speaker A: ""The Empire State Building is tall.""</b>",45,buildings,NA,NA,NA,NA,some_college,NA,comp_class_warmup,english,female,NA,NA,In the main trials you will be asked to rephrase something a person said. The utterance will contain a word that is <i>relative</i> and your task is to figure out what it is relative to. <br /> <br /> For example: <br /><br />,1,1571852078978,1,NA,2,NA,NA,"buildings, skyscrapers, houses, constructions (choose one)",NA,comp_class_warmup,NA
688,NA,dandelion,NA,NA,NA,15,warmup/sunflower.png,dandelion,This is a,no,2,flowers,jessica,NA,sunflower,NA,yes,Please label the pictures below.,NA,NA,45,NA,NA,NA,warmup/dandelion.jpg,flowers,some_college,NA,NA,english,female,NA,flowers,NA,1,1571852078978,1,This is a,2,These are both,sunflower,NA,NA,warmup1,NA
688,NA,shark,NA,NA,NA,15,warmup/goldfish.png,swordfish,This is a,no,2,fish,jessica,NA,goldfish,NA,yes,Please label the pictures below.,NA,NA,45,NA,NA,NA,warmup/swordfish.jpg,fish,some_college,NA,NA,english,female,NA,fish,NA,2,1571852078978,1,This is a,2,These are both,goldfish,NA,NA,warmup1,NA
688,NA,swordfish,NA,NA,NA,15,warmup/goldfish.png,swordfish,This is a,no,2,fish,jessica,NA,goldfish,NA,yes,Please label the pictures below.,NA,NA,45,NA,NA,NA,warmup/swordfish.jpg,fish,some_college,NA,NA,english,female,NA,fish,NA,2,1571852078978,2,This is a,2,These are both,goldfish,NA,NA,warmup1,NA
688,NA,tree,NA,NA,NA,15,warmup/bonsai.jpg,redwood or sequoia (choose one),This is a,no,2,trees,jessica,NA,bonsai,NA,yes,Please label the pictures below.,NA,NA,45,NA,NA,NA,warmup/sequoia.png,plants,some_college,NA,NA,english,female,NA,trees,NA,3,1571852078978,1,This is a,2,These are both,bush,NA,NA,warmup1,NA
688,NA,tree,NA,NA,NA,15,warmup/bonsai.jpg,redwood or sequoia (choose one),This is a,no,2,trees,jessica,NA,bonsai,NA,yes,Please label the pictures below.,NA,NA,45,NA,NA,NA,warmup/sequoia.png,trees,some_college,NA,NA,english,female,NA,trees,NA,3,1571852078978,2,This is a,2,These are both,bonsai,NA,NA,warmup1,NA
688,NA,tree,NA,NA,NA,15,warmup/bonsai.jpg,redwood or sequoia (choose one),This is a,no,2,trees,jessica,NA,bonsai,NA,yes,Please label the pictures below.,NA,NA,45,NA,NA,NA,warmup/sequoia.png,trees,some_college,NA,NA,english,female,NA,trees,NA,3,1571852078978,3,This is a,2,These are both,bonsai,NA,NA,warmup1,NA
688,NA,redwood,NA,NA,NA,15,warmup/bonsai.jpg,redwood or sequoia (choose one),This is a,no,2,trees,jessica,NA,bonsai,NA,yes,Please label the pictures below.,NA,NA,45,NA,NA,NA,warmup/sequoia.png,trees,some_college,NA,NA,english,female,NA,trees,NA,3,1571852078978,4,This is a,2,These are both,bonsai,NA,NA,warmup1,NA
688,What do you think your friend meant?,NA,It is small relative to other,images/fish-parade-goldfish.png,images/goldfish.png,15,NA,NA,NA,no,2,fish,jessica,NA,NA,1,yes,"Your friend runs far ahead of you, and you see him in the distance:",predicative,NA,45,fish,NA,0,NA,NA,some_college,small,NA,english,female,NA,NA,You and your friend see the following:,1,1571852078978,NA,NA,2,NA,NA,NA,congr,custom_main_text1,Your friend says: <br/><b>That fish is small.</b>
688,What do you think your friend meant?,NA,It is small relative to other,images/tree-parade-bonsai.png,images/bonsai.png,15,NA,NA,NA,no,2,trees,jessica,NA,NA,1,yes,"Your friend runs far ahead of you, and you see him in the distance:",predicative,NA,45,trees\ntrees,NA,0,NA,NA,some_college,small,NA,english,female,NA,NA,You and your friend see the following:,2,1571852078978,NA,NA,2,NA,NA,NA,congr,custom_main_text1,Your friend says: <br/><b>That tree is small.</b>
688,What do you think your friend meant?,NA,It is small relative to other,images/flower-parade-dandelion.png,images/dandelion.png,15,NA,NA,NA,no,2,flowers,jessica,NA,NA,1,yes,"Your friend runs far ahead of you, and you see him in the distance:",predicative,NA,45,flowers,NA,0,NA,NA,some_college,small,NA,english,female,NA,NA,You and your friend see the following:,3,1571852078978,NA,NA,2,NA,NA,NA,congr,custom_main_text1,Your friend says: <br/><b>That flower is small.</b>
688,NA,hummingbird,NA,NA,NA,15,warmup/eagle.jpg,hummingbird,This is a,no,2,birds,jessica,NA,eagle,NA,yes,Please label the pictures below.,NA,NA,45,NA,NA,NA,warmup/colibri.jpg,birds\nbirds,some_college,NA,NA,english,female,NA,birds,NA,1,1571852078978,1,This is an,2,These are both,eagle,NA,NA,warmup2,NA
688,NA,hummingbird,NA,NA,NA,15,warmup/eagle.jpg,hummingbird,This is a,no,2,birds,jessica,NA,eagle,NA,yes,Please label the pictures below.,NA,NA,45,NA,NA,NA,warmup/colibri.jpg,birds\nbirds,some_college,NA,NA,english,female,NA,birds,NA,1,1571852078978,2,This is an,2,These are both,eagle,NA,NA,warmup2,NA
688,NA,hummingbird,NA,NA,NA,15,warmup/eagle.jpg,hummingbird,This is a,no,2,birds,jessica,NA,eagle,NA,yes,Please label the pictures below.,NA,NA,45,NA,NA,NA,warmup/colibri.jpg,birds\nbirds,some_college,NA,NA,english,female,NA,birds,NA,1,1571852078978,3,This is an,2,These are both,eagle,NA,NA,warmup2,NA
688,NA,hummingbird,NA,NA,NA,15,warmup/eagle.jpg,hummingbird,This is a,no,2,birds,jessica,NA,eagle,NA,yes,Please label the pictures below.,NA,NA,45,NA,NA,NA,warmup/colibri.jpg,birds\nbirds,some_college,NA,NA,english,female,NA,birds,NA,1,1571852078978,4,This is an,2,These are both,eagle,NA,NA,warmup2,NA
688,NA,hummingbird,NA,NA,NA,15,warmup/eagle.jpg,hummingbird,This is a,no,2,birds,jessica,NA,eagle,NA,yes,Please label the pictures below.,NA,NA,45,NA,NA,NA,warmup/colibri.jpg,birds,some_college,NA,NA,english,female,NA,birds,NA,1,1571852078978,5,This is an,2,These are both,eagle,NA,NA,warmup2,NA
688,NA,chihuahua,NA,NA,NA,15,warmup/doberman.png,chihuahua,This is a,no,2,dogs,jessica,NA,doberman,NA,yes,Please label the pictures below.,NA,NA,45,NA,NA,NA,warmup/chihuahua.jpg,dogs,some_college,NA,NA,english,female,NA,dogs,NA,2,1571852078978,1,This is a,2,These are both,doberman pinscher,NA,NA,warmup2,NA
688,NA,chihuahua,NA,NA,NA,15,warmup/doberman.png,chihuahua,This is a,no,2,dogs,jessica,NA,doberman,NA,yes,Please label the pictures below.,NA,NA,45,NA,NA,NA,warmup/chihuahua.jpg,dogs,some_college,NA,NA,english,female,NA,dogs,NA,2,1571852078978,2,This is a,2,These are both,doberman,NA,NA,warmup2,NA
688,NA,pug,NA,NA,NA,15,warmup/great-dane.jpg,pug,This is a,no,2,dogs,jessica,NA,great dane,NA,yes,Please label the pictures below.,NA,NA,45,NA,NA,NA,warmup/pug.jpg,dogs,some_college,NA,NA,english,female,NA,dogs,NA,3,1571852078978,1,This is a,2,These are both,great dane,NA,NA,warmup2,NA
688,What do you think your friend meant?,NA,It is big relative to other,images/dog-parade-basic.png,images/doberman.png,15,NA,NA,NA,no,2,dogs1,jessica,NA,NA,0,yes,"Your friend runs far ahead of you, and you see him in the distance:",predicative,NA,45,dogs,NA,0,NA,NA,some_college,big,NA,english,female,NA,NA,You and your friend see the following:,1,1571852078978,NA,NA,2,NA,NA,NA,basic,custom_main_text2,Your friend says: <br/><b>That dog is big.</b>
688,What do you think your friend meant?,NA,It is big relative to other,images/bird-parade-basic.png,images/eagle.png,15,NA,NA,NA,no,2,birds,jessica,NA,NA,0,yes,"Your friend runs far ahead of you, and you see him in the distance:",predicative,NA,45,birds,NA,0,NA,NA,some_college,big,NA,english,female,NA,NA,You and your friend see the following:,2,1571852078978,NA,NA,2,NA,NA,NA,basic,custom_main_text2,Your friend says: <br/><b>That bird is big.</b>
688,What do you think your friend meant?,NA,It is big relative to other,images/dog-parade-basic2.png,images/great-dane.png,15,NA,NA,NA,no,2,dogs2,jessica,NA,NA,0,yes,"Your friend runs far ahead of you, and you see him in the distance:",predicative,NA,45,dogs,NA,0,NA,NA,some_college,big,NA,english,female,NA,NA,You and your friend see the following:,3,1571852078978,NA,NA,2,NA,NA,NA,basic,custom_main_text2,Your friend says: <br/><b>That dog is big.</b>
687,<i>What do you think Speaker A meant? </i>,NA,The Empire State Building is tall relative to other,NA,NA,15,NA,NA,NA,None,2,NA,elizabeth,1,NA,NA,yes,NA,NA,"<b> Speaker A: ""The Empire State Building is tall.""</b>",42,buildings.,NA,NA,NA,NA,some_college,NA,comp_class_warmup,English,female,NA,NA,In the main trials you will be asked to rephrase something a person said. The utterance will contain a word that is <i>relative</i> and your task is to figure out what it is relative to. <br /> <br /> For example: <br /><br />,1,1571852202021,1,NA,1.5,NA,NA,"buildings, skyscrapers, houses, constructions (choose one)",NA,comp_class_warmup,NA
687,<i>What do you think Speaker A meant? </i>,NA,The Empire State Building is tall relative to other,NA,NA,15,NA,NA,NA,None,2,NA,elizabeth,1,NA,NA,yes,NA,NA,"<b> Speaker A: ""The Empire State Building is tall.""</b>",42,buildings.,NA,NA,NA,NA,some_college,NA,comp_class_warmup,English,female,NA,NA,In the main trials you will be asked to rephrase something a person said. The utterance will contain a word that is <i>relative</i> and your task is to figure out what it is relative to. <br /> <br /> For example: <br /><br />,1,1571852202021,2,NA,1.5,NA,NA,"buildings, skyscrapers, houses, constructions (choose one)",NA,comp_class_warmup,NA
687,<i>What do you think Speaker A meant? </i>,NA,The Empire State Building is tall relative to other,NA,NA,15,NA,NA,NA,None,2,NA,elizabeth,1,NA,NA,yes,NA,NA,"<b> Speaker A: ""The Empire State Building is tall.""</b>",42,buildings,NA,NA,NA,NA,some_college,NA,comp_class_warmup,English,female,NA,NA,In the main trials you will be asked to rephrase something a person said. The utterance will contain a word that is <i>relative</i> and your task is to figure out what it is relative to. <br /> <br /> For example: <br /><br />,1,1571852202021,3,NA,1.5,NA,NA,"buildings, skyscrapers, houses, constructions (choose one)",NA,comp_class_warmup,NA
687,NA,bird,NA,NA,NA,15,warmup/eagle.jpg,hummingbird,This is a,None,2,birds,elizabeth,NA,eagle,NA,yes,Please label the pictures below.,NA,NA,42,NA,NA,NA,warmup/colibri.jpg,birds,some_college,NA,NA,English,female,NA,birds,NA,1,1571852202021,1,This is an,1.5,These are both,eagle,NA,NA,warmup1,NA
687,NA,hummingbird,NA,NA,NA,15,warmup/eagle.jpg,hummingbird,This is a,None,2,birds,elizabeth,NA,eagle,NA,yes,Please label the pictures below.,NA,NA,42,NA,NA,NA,warmup/colibri.jpg,birds,some_college,NA,NA,English,female,NA,birds,NA,1,1571852202021,2,This is an,1.5,These are both,eagle,NA,NA,warmup1,NA
687,NA,bulldog,NA,NA,NA,15,warmup/great-dane.jpg,pug,This is a,None,2,dogs,elizabeth,NA,great dane,NA,yes,Please label the pictures below.,NA,NA,42,NA,NA,NA,warmup/pug.jpg,dogs,some_college,NA,NA,English,female,NA,dogs,NA,2,1571852202021,1,This is a,1.5,These are both,dog,NA,NA,warmup1,NA
687,NA,pug,NA,NA,NA,15,warmup/great-dane.jpg,pug,This is a,None,2,dogs,elizabeth,NA,great dane,NA,yes,Please label the pictures below.,NA,NA,42,NA,NA,NA,warmup/pug.jpg,dogs,some_college,NA,NA,English,female,NA,dogs,NA,2,1571852202021,2,This is a,1.5,These are both,great dane,NA,NA,warmup1,NA
687,NA,tree,NA,NA,NA,15,warmup/bonsai.jpg,redwood or sequoia (choose one),This is a,None,2,trees,elizabeth,NA,bonsai,NA,yes,Please label the pictures below.,NA,NA,42,NA,NA,NA,warmup/sequoia.png,trees,some_college,NA,NA,English,female,NA,trees,NA,3,1571852202021,1,This is a,1.5,These are both,bonsai,NA,NA,warmup1,NA
687,NA,redwood,NA,NA,NA,15,warmup/bonsai.jpg,redwood or sequoia (choose one),This is a,None,2,trees,elizabeth,NA,bonsai,NA,yes,Please label the pictures below.,NA,NA,42,NA,NA,NA,warmup/sequoia.png,trees,some_college,NA,NA,English,female,NA,trees,NA,3,1571852202021,2,This is a,1.5,These are both,bonsai,NA,NA,warmup1,NA
687,What do you think your friend meant?,NA,It is big relative to other,images/dog-parade-great-dane.png,images/great-dane.png,15,NA,NA,NA,None,2,dogs2,elizabeth,NA,NA,1,yes,"Your friend runs far ahead of you, and you see him in the distance:",predicative,NA,42,dogs,NA,0,NA,NA,some_college,big,NA,English,female,NA,NA,You and your friend see the following:,1,1571852202021,NA,NA,1.5,NA,NA,NA,congr,custom_main_text1,Your friend says: <br/><b>That dog is big.</b>
687,What do you think your friend meant?,NA,It is big relative to other,images/tree-parade-basic.png,images/redwood.png,15,NA,NA,NA,None,2,trees,elizabeth,NA,NA,0,yes,"Your friend runs far ahead of you, and you see him in the distance:",predicative,NA,42,trees,NA,0,NA,NA,some_college,big,NA,English,female,NA,NA,You and your friend see the following:,2,1571852202021,NA,NA,1.5,NA,NA,NA,basic,custom_main_text1,Your friend says: <br/><b>That tree is big.</b>
687,What do you think your friend meant?,NA,It is big relative to other,images/bird-parade-eagle.png,images/eagle.png,15,NA,NA,NA,None,2,birds,elizabeth,NA,NA,1,yes,"Your friend runs far ahead of you, and you see him in the distance:",predicative,NA,42,eagles,NA,0,NA,NA,some_college,big,NA,English,female,NA,NA,You and your friend see the following:,3,1571852202021,NA,NA,1.5,NA,NA,NA,congr,custom_main_text1,Your friend says: <br/><b>That bird is big.</b>
687,NA,daisy,NA,NA,NA,15,warmup/sunflower.png,dandelion,This is a,None,2,flowers,elizabeth,NA,sunflower,NA,yes,Please label the pictures below.,NA,NA,42,NA,NA,NA,warmup/dandelion.jpg,flowers,some_college,NA,NA,English,female,NA,flowers,NA,1,1571852202021,1,This is a,1.5,These are both,sunflower,NA,NA,warmup2,NA
687,NA,dandelion,NA,NA,NA,15,warmup/sunflower.png,dandelion,This is a,None,2,flowers,elizabeth,NA,sunflower,NA,yes,Please label the pictures below.,NA,NA,42,NA,NA,NA,warmup/dandelion.jpg,flowers,some_college,NA,NA,English,female,NA,flowers,NA,1,1571852202021,2,This is a,1.5,These are both,sunflower,NA,NA,warmup2,NA
687,NA,chiauawa,NA,NA,NA,15,warmup/doberman.png,chihuahua,This is a,None,2,dogs,elizabeth,NA,doberman,NA,yes,Please label the pictures below.,NA,NA,42,NA,NA,NA,warmup/chihuahua.jpg,dogs,some_college,NA,NA,English,female,NA,dogs,NA,2,1571852202021,1,This is a,1.5,These are both,great dane,NA,NA,warmup2,NA
687,NA,chihuahua,NA,NA,NA,15,warmup/doberman.png,chihuahua,This is a,None,2,dogs,elizabeth,NA,doberman,NA,yes,Please label the pictures below.,NA,NA,42,NA,NA,NA,warmup/chihuahua.jpg,dogs,some_college,NA,NA,English,female,NA,dogs,NA,2,1571852202021,2,This is a,1.5,These are both,doberman,NA,NA,warmup2,NA
687,NA,swordfish,NA,NA,NA,15,warmup/goldfish.png,swordfish,This is a,None,2,fish,elizabeth,NA,goldfish,NA,yes,Please label the pictures below.,NA,NA,42,NA,NA,NA,warmup/swordfish.jpg,fish,some_college,NA,NA,English,female,NA,fish,NA,3,1571852202021,1,This is a,1.5,These are both,goldfish,NA,NA,warmup2,NA
687,What do you think your friend meant?,NA,It is small relative to other,images/flower-parade-basic.png,images/dandelion.png,15,NA,NA,NA,None,2,flowers,elizabeth,NA,NA,0,yes,"Your friend runs far ahead of you, and you see him in the distance:",predicative,NA,42,flowers,NA,0,NA,NA,some_college,small,NA,English,female,NA,NA,You and your friend see the following:,1,1571852202021,NA,NA,1.5,NA,NA,NA,basic,custom_main_text2,Your friend says: <br/><b>That flower is small.</b>
687,What do you think your friend meant?,NA,It is small relative to other,images/fish-parade-basic.png,images/goldfish.png,15,NA,NA,NA,None,2,fish,elizabeth,NA,NA,0,yes,"Your friend runs far ahead of you, and you see him in the distance:",predicative,NA,42,fish,NA,0,NA,NA,some_college,small,NA,English,female,NA,NA,You and your friend see the following:,2,1571852202021,NA,NA,1.5,NA,NA,NA,basic,custom_main_text2,Your friend says: <br/><b>That fish is small.</b>
687,What do you think your friend meant?,NA,It is small relative to other,images/dog-parade-chihuahua.png,images/chihuahua.png,15,NA,NA,NA,None,2,dogs1,elizabeth,NA,NA,1,yes,"Your friend runs far ahead of you, and you see him in the distance:",predicative,NA,42,small dogs,NA,0,NA,NA,some_college,small,NA,English,female,NA,NA,You and your friend see the following:,3,1571852202021,NA,NA,1.5,NA,NA,NA,congr,custom_main_text2,Your friend says: <br/><b>That dog is small.</b>
686,<i>What do you think Speaker A meant? </i>,NA,The Empire State Building is tall relative to other,NA,NA,15,NA,NA,NA,no problem very good experiment,1,NA,elizabeth,1,NA,NA,yes,NA,NA,"<b> Speaker A: ""The Empire State Building is tall.""</b>",30,The Empire State Building is tall,such a nice task and good experience,NA,NA,NA,graduated_college,NA,comp_class_warmup,English,male,NA,NA,In the main trials you will be asked to rephrase something a person said. The utterance will contain a word that is <i>relative</i> and your task is to figure out what it is relative to. <br /> <br /> For example: <br /><br />,1,1571851371874,1,NA,1,NA,NA,"buildings, skyscrapers, houses, constructions (choose one)",NA,comp_class_warmup,NA
686,<i>What do you think Speaker A meant? </i>,NA,The Empire State Building is tall relative to other,NA,NA,15,NA,NA,NA,no problem very good experiment,1,NA,elizabeth,1,NA,NA,yes,NA,NA,"<b> Speaker A: ""The Empire State Building is tall.""</b>",30,Building,such a nice task and good experience,NA,NA,NA,graduated_college,NA,comp_class_warmup,English,male,NA,NA,In the main trials you will be asked to rephrase something a person said. The utterance will contain a word that is <i>relative</i> and your task is to figure out what it is relative to. <br /> <br /> For example: <br /><br />,1,1571851371874,2,NA,1,NA,NA,"buildings, skyscrapers, houses, constructions (choose one)",NA,comp_class_warmup,NA
686,NA,dog,NA,NA,NA,15,warmup/great-dane.jpg,pug,This is a,no problem very good experiment,1,dogs,elizabeth,NA,great dane,NA,yes,Please label the pictures below.,NA,NA,30,NA,such a nice task and good experience,NA,warmup/pug.jpg,dog,graduated_college,NA,NA,English,male,NA,dogs,NA,1,1571851371874,1,This is a,1,These are both,dog,NA,NA,warmup1,NA
686,NA,dog,NA,NA,NA,15,warmup/great-dane.jpg,pug,This is a,no problem very good experiment,1,dogs,elizabeth,NA,great dane,NA,yes,Please label the pictures below.,NA,NA,30,NA,such a nice task and good experience,NA,warmup/pug.jpg,dog,graduated_college,NA,NA,English,male,NA,dogs,NA,1,1571851371874,2,This is a,1,These are both,dog,NA,NA,warmup1,NA
686,NA,dog,NA,NA,NA,15,warmup/great-dane.jpg,pug,This is a,no problem very good experiment,1,dogs,elizabeth,NA,great dane,NA,yes,Please label the pictures below.,NA,NA,30,NA,such a nice task and good experience,NA,warmup/pug.jpg,dog,graduated_college,NA,NA,English,male,NA,dogs,NA,1,1571851371874,3,This is a,1,These are both,dog,NA,NA,warmup1,NA
686,NA,dog,NA,NA,NA,15,warmup/great-dane.jpg,pug,This is a,no problem very good experiment,1,dogs,elizabeth,NA,great dane,NA,yes,Please label the pictures below.,NA,NA,30,NA,such a nice task and good experience,NA,warmup/pug.jpg,dog,graduated_college,NA,NA,English,male,NA,dogs,NA,1,1571851371874,4,This is a,1,These are both,dog,NA,NA,warmup1,NA
686,NA,dog,NA,NA,NA,15,warmup/great-dane.jpg,pug,This is a,no problem very good experiment,1,dogs,elizabeth,NA,great dane,NA,yes,Please label the pictures below.,NA,NA,30,NA,such a nice task and good experience,NA,warmup/pug.jpg,dog,graduated_college,NA,NA,English,male,NA,dogs,NA,1,1571851371874,5,This is a,1,These are both,dog,NA,NA,warmup1,NA
686,NA,dog,NA,NA,NA,15,warmup/great-dane.jpg,pug,This is a,no problem very good experiment,1,dogs,elizabeth,NA,great dane,NA,yes,Please label the pictures below.,NA,NA,30,NA,such a nice task and good experience,NA,warmup/pug.jpg,dog,graduated_college,NA,NA,English,male,NA,dogs,NA,1,1571851371874,6,This is a,1,These are both,dog,NA,NA,warmup1,NA
686,NA,dog,NA,NA,NA,15,warmup/great-dane.jpg,pug,This is a,no problem very good experiment,1,dogs,elizabeth,NA,great dane,NA,yes,Please label the pictures below.,NA,NA,30,NA,such a nice task and good experience,NA,warmup/pug.jpg,dog,graduated_college,NA,NA,English,male,NA,dogs,NA,1,1571851371874,7,This is a,1,These are both,dog,NA,NA,warmup1,NA
686,NA,dog,NA,NA,NA,15,warmup/great-dane.jpg,pug,This is a,no problem very good experiment,1,dogs,elizabeth,NA,great dane,NA,yes,Please label the pictures below.,NA,NA,30,NA,such a nice task and good experience,NA,warmup/pug.jpg,dog,graduated_college,NA,NA,English,male,NA,dogs,NA,1,1571851371874,8,This is a,1,These are both,dog,NA,NA,warmup1,NA
686,NA,dog,NA,NA,NA,15,warmup/great-dane.jpg,pug,This is a,no problem very good experiment,1,dogs,elizabeth,NA,great dane,NA,yes,Please label the pictures below.,NA,NA,30,NA,such a nice task and good experience,NA,warmup/pug.jpg,dog,graduated_college,NA,NA,English,male,NA,dogs,NA,1,1571851371874,9,This is a,1,These are both,dog,NA,NA,warmup1,NA
686,NA,dog,NA,NA,NA,15,warmup/great-dane.jpg,pug,This is a,no problem very good experiment,1,dogs,elizabeth,NA,great dane,NA,yes,Please label the pictures below.,NA,NA,30,NA,such a nice task and good experience,NA,warmup/pug.jpg,dog,graduated_college,NA,NA,English,male,NA,dogs,NA,1,1571851371874,10,This is a,1,These are both,dog,NA,NA,warmup1,NA
686,NA,dog,NA,NA,NA,15,warmup/great-dane.jpg,pug,This is a,no problem very good experiment,1,dogs,elizabeth,NA,great dane,NA,yes,Please label the pictures below.,NA,NA,30,NA,such a nice task and good experience,NA,warmup/pug.jpg,dog,graduated_college,NA,NA,English,male,NA,dogs,NA,1,1571851371874,11,This is a,1,These are both,dog,NA,NA,warmup1,NA
686,NA,dog,NA,NA,NA,15,warmup/great-dane.jpg,pug,This is a,no problem very good experiment,1,dogs,elizabeth,NA,great dane,NA,yes,Please label the pictures below.,NA,NA,30,NA,such a nice task and good experience,NA,warmup/pug.jpg,dog,graduated_college,NA,NA,English,male,NA,dogs,NA,1,1571851371874,12,This is a,1,These are both,dog,NA,NA,warmup1,NA
686,NA,dog,NA,NA,NA,15,warmup/great-dane.jpg,pug,This is a,no problem very good experiment,1,dogs,elizabeth,NA,great dane,NA,yes,Please label the pictures below.,NA,NA,30,NA,such a nice task and good experience,NA,warmup/pug.jpg,dogs,graduated_college,NA,NA,English,male,NA,dogs,NA,1,1571851371874,13,This is a,1,These are both,dog,NA,NA,warmup1,NA
686,NA,dog,NA,NA,NA,15,warmup/great-dane.jpg,pug,This is a,no problem very good experiment,1,dogs,elizabeth,NA,great dane,NA,yes,Please label the pictures below.,NA,NA,30,NA,such a nice task and good experience,NA,warmup/pug.jpg,dogs,graduated_college,NA,NA,English,male,NA,dogs,NA,1,1571851371874,14,This is a,1,These are both,dog,NA,NA,warmup1,NA
686,NA,pug,NA,NA,NA,15,warmup/great-dane.jpg,pug,This is a,no problem very good experiment,1,dogs,elizabeth,NA,great dane,NA,yes,Please label the pictures below.,NA,NA,30,NA,such a nice task and good experience,NA,warmup/pug.jpg,dogs,graduated_college,NA,NA,English,male,NA,dogs,NA,1,1571851371874,15,This is a,1,These are both,great dane,NA,NA,warmup1,NA
686,NA,fish,NA,NA,NA,15,warmup/goldfish.png,swordfish,This is a,no problem very good experiment,1,fish,elizabeth,NA,goldfish,NA,yes,Please label the pictures below.,NA,NA,30,NA,such a nice task and good experience,NA,warmup/swordfish.jpg,fish,graduated_college,NA,NA,English,male,NA,fish,NA,2,1571851371874,1,This is a,1,These are both,fish,NA,NA,warmup1,NA
686,NA,swordfish,NA,NA,NA,15,warmup/goldfish.png,swordfish,This is a,no problem very good experiment,1,fish,elizabeth,NA,goldfish,NA,yes,Please label the pictures below.,NA,NA,30,NA,such a nice task and good experience,NA,warmup/swordfish.jpg,fish,graduated_college,NA,NA,English,male,NA,fish,NA,2,1571851371874,2,This is a,1,These are both,goldfish,NA,NA,warmup1,NA
686,NA,dog,NA,NA,NA,15,warmup/doberman.png,chihuahua,This is a,no problem very good experiment,1,dogs,elizabeth,NA,doberman,NA,yes,Please label the pictures below.,NA,NA,30,NA,such a nice task and good experience,NA,warmup/chihuahua.jpg,dog,graduated_college,NA,NA,English,male,NA,dogs,NA,3,1571851371874,1,This is a,1,These are both,dog,NA,NA,warmup1,NA
686,NA,dochihuahuag,NA,NA,NA,15,warmup/doberman.png,chihuahua,This is a,no problem very good experiment,1,dogs,elizabeth,NA,doberman,NA,yes,Please label the pictures below.,NA,NA,30,NA,such a nice task and good experience,NA,warmup/chihuahua.jpg,dogs,graduated_college,NA,NA,English,male,NA,dogs,NA,3,1571851371874,2,This is a,1,These are both,doberman,NA,NA,warmup1,NA
686,NA,chihuahuag,NA,NA,NA,15,warmup/doberman.png,chihuahua,This is a,no problem very good experiment,1,dogs,elizabeth,NA,doberman,NA,yes,Please label the pictures below.,NA,NA,30,NA,such a nice task and good experience,NA,warmup/chihuahua.jpg,dogs,graduated_college,NA,NA,English,male,NA,dogs,NA,3,1571851371874,3,This is a,1,These are both,doberman,NA,NA,warmup1,NA
686,NA,chihuahua,NA,NA,NA,15,warmup/doberman.png,chihuahua,This is a,no problem very good experiment,1,dogs,elizabeth,NA,doberman,NA,yes,Please label the pictures below.,NA,NA,30,NA,such a nice task and good experience,NA,warmup/chihuahua.jpg,dogs,graduated_college,NA,NA,English,male,NA,dogs,NA,3,1571851371874,4,This is a,1,These are both,doberman,NA,NA,warmup1,NA
686,What do you think your friend meant?,NA,It is small relative to other,images/dog-parade-pug.png,images/pug.png,15,NA,NA,NA,no problem very good experiment,1,dogs2,elizabeth,NA,NA,1,yes,"Your friend runs far ahead of you, and you see him in the distance:",predicative,NA,30,friends,such a nice task and good experience,0,NA,NA,graduated_college,small,NA,English,male,NA,NA,You and your friend see the following:,1,1571851371874,NA,NA,1,NA,NA,NA,congr,custom_main_text1,Your friend says: <br/><b>That dog is small.</b>
686,What do you think your friend meant?,NA,It is small relative to other,images/fish-parade-goldfish.png,images/goldfish.png,15,NA,NA,NA,no problem very good experiment,1,fish,elizabeth,NA,NA,1,yes,"Your friend runs far ahead of you, and you see him in the distance:",predicative,NA,30,pet,such a nice task and good experience,0,NA,NA,graduated_college,small,NA,English,male,NA,NA,You and your friend see the following:,2,1571851371874,NA,NA,1,NA,NA,NA,congr,custom_main_text1,Your friend says: <br/><b>That fish is small.</b>
686,What do you think your friend meant?,NA,It is big relative to other,images/dog-parade-basic.png,images/doberman.png,15,NA,NA,NA,no problem very good experiment,1,dogs1,elizabeth,NA,NA,0,yes,"Your friend runs far ahead of you, and you see him in the distance:",predicative,NA,30,security,such a nice task and good experience,0,NA,NA,graduated_college,big,NA,English,male,NA,NA,You and your friend see the following:,3,1571851371874,NA,NA,1,NA,NA,NA,basic,custom_main_text1,Your friend says: <br/><b>That dog is big.</b>
686,NA,hfgh,NA,NA,NA,15,warmup/eagle.jpg,hummingbird,This is a,no problem very good experiment,1,birds,elizabeth,NA,eagle,NA,yes,Please label the pictures below.,NA,NA,30,NA,such a nice task and good experience,NA,warmup/colibri.jpg,fgfdg,graduated_college,NA,NA,English,male,NA,birds,NA,1,1571851371874,1,This is an,1,These are both,fgfdg,NA,NA,warmup2,NA
686,NA,hummingbird,NA,NA,NA,15,warmup/eagle.jpg,hummingbird,This is a,no problem very good experiment,1,birds,elizabeth,NA,eagle,NA,yes,Please label the pictures below.,NA,NA,30,NA,such a nice task and good experience,NA,warmup/colibri.jpg,birds,graduated_college,NA,NA,English,male,NA,birds,NA,1,1571851371874,2,This is an,1,These are both,eagle,NA,NA,warmup2,NA
686,NA,trees,NA,NA,NA,15,warmup/bonsai.jpg,redwood or sequoia (choose one),This is a,no problem very good experiment,1,trees,elizabeth,NA,bonsai,NA,yes,Please label the pictures below.,NA,NA,30,NA,such a nice task and good experience,NA,warmup/sequoia.png,rees,graduated_college,NA,NA,English,male,NA,trees,NA,2,1571851371874,1,This is a,1,These are both,treest,NA,NA,warmup2,NA
686,NA,redwood,NA,NA,NA,15,warmup/bonsai.jpg,redwood or sequoia (choose one),This is a,no problem very good experiment,1,trees,elizabeth,NA,bonsai,NA,yes,Please label the pictures below.,NA,NA,30,NA,such a nice task and good experience,NA,warmup/sequoia.png,trees,graduated_college,NA,NA,English,male,NA,trees,NA,2,1571851371874,2,This is a,1,These are both,bonsai,NA,NA,warmup2,NA
686,NA,flowers,NA,NA,NA,15,warmup/sunflower.png,dandelion,This is a,no problem very good experiment,1,flowers,elizabeth,NA,sunflower,NA,yes,Please label the pictures below.,NA,NA,30,NA,such a nice task and good experience,NA,warmup/dandelion.jpg,flowers,graduated_college,NA,NA,English,male,NA,flowers,NA,3,1571851371874,1,This is a,1,These are both,flowers,NA,NA,warmup2,NA
686,NA,dandelion,NA,NA,NA,15,warmup/sunflower.png,dandelion,This is a,no problem very good experiment,1,flowers,elizabeth,NA,sunflower,NA,yes,Please label the pictures below.,NA,NA,30,NA,such a nice task and good experience,NA,warmup/dandelion.jpg,flowers,graduated_college,NA,NA,English,male,NA,flowers,NA,3,1571851371874,2,This is a,1,These are both,sunflower,NA,NA,warmup2,NA
686,What do you think your friend meant?,NA,It is big relative to other,images/bird-parade-basic.png,images/eagle.png,15,NA,NA,NA,no problem very good experiment,1,birds,elizabeth,NA,NA,0,yes,"Your friend runs far ahead of you, and you see him in the distance:",predicative,NA,30,pet,such a nice task and good experience,0,NA,NA,graduated_college,big,NA,English,male,NA,NA,You and your friend see the following:,1,1571851371874,NA,NA,1,NA,NA,NA,basic,custom_main_text2,Your friend says: <br/><b>That bird is big.</b>
686,What do you think your friend meant?,NA,It is small relative to other,images/tree-parade-basic.png,images/bonsai.png,15,NA,NA,NA,no problem very good experiment,1,trees,elizabeth,NA,NA,0,yes,"Your friend runs far ahead of you, and you see him in the distance:",predicative,NA,30,security,such a nice task and good experience,0,NA,NA,graduated_college,small,NA,English,male,NA,NA,You and your friend see the following:,2,1571851371874,NA,NA,1,NA,NA,NA,basic,custom_main_text2,Your friend says: <br/><b>That tree is small.</b>
686,What do you think your friend meant?,NA,It is big relative to other,images/flower-parade-sunflower.png,images/sunflower.png,15,NA,NA,NA,no problem very good experiment,1,flowers,elizabeth,NA,NA,1,yes,"Your friend runs far ahead of you, and you see him in the distance:",predicative,NA,30,nice relationship,such a nice task and good experience,0,NA,NA,graduated_college,big,NA,English,male,NA,NA,You and your friend see the following:,3,1571851371874,NA,NA,1,NA,NA,NA,congr,custom_main_text2,Your friend says: <br/><b>That flower is big.</b>
684,<i>What do you think Speaker A meant? </i>,NA,The Empire State Building is tall relative to other,NA,NA,15,NA,NA,NA,NA,1,NA,linda,1,NA,NA,yes,NA,NA,"<b> Speaker A: ""The Empire State Building is tall.""</b>",20,buildings,NA,NA,NA,NA,some_college,NA,comp_class_warmup,English,female,NA,NA,In the main trials you will be asked to rephrase something a person said. The utterance will contain a word that is <i>relative</i> and your task is to figure out what it is relative to. <br /> <br /> For example: <br /><br />,1,1571852096776,1,NA,2,NA,NA,"buildings, skyscrapers, houses, constructions (choose one)",NA,comp_class_warmup,NA
684,NA,hummingbird,NA,NA,NA,15,warmup/eagle.jpg,hummingbird,This is a,NA,1,birds,linda,NA,eagle,NA,yes,Please label the pictures below.,NA,NA,20,NA,NA,NA,warmup/colibri.jpg,birds,some_college,NA,NA,English,female,NA,birds,NA,1,1571852096776,1,This is an,2,These are both,eagle,NA,NA,warmup1,NA
684,NA,Chihuahua,NA,NA,NA,15,warmup/doberman.png,chihuahua,This is a,NA,1,dogs,linda,NA,doberman,NA,yes,Please label the pictures below.,NA,NA,20,NA,NA,NA,warmup/chihuahua.jpg,dogs,some_college,NA,NA,English,female,NA,dogs,NA,2,1571852096776,1,This is a,2,These are both,Doberman,NA,NA,warmup1,NA
684,NA,dandelion,NA,NA,NA,15,warmup/sunflower.png,dandelion,This is a,NA,1,flowers,linda,NA,sunflower,NA,yes,Please label the pictures below.,NA,NA,20,NA,NA,NA,warmup/dandelion.jpg,plants,some_college,NA,NA,English,female,NA,flowers,NA,3,1571852096776,1,This is a,2,These are both,sunflower,NA,NA,warmup1,NA
684,NA,dandelion,NA,NA,NA,15,warmup/sunflower.png,dandelion,This is a,NA,1,flowers,linda,NA,sunflower,NA,yes,Please label the pictures below.,NA,NA,20,NA,NA,NA,warmup/dandelion.jpg,plants,some_college,NA,NA,English,female,NA,flowers,NA,3,1571852096776,2,This is a,2,These are both,sunflower,NA,NA,warmup1,NA
684,NA,dandelion,NA,NA,NA,15,warmup/sunflower.png,dandelion,This is a,NA,1,flowers,linda,NA,sunflower,NA,yes,Please label the pictures below.,NA,NA,20,NA,NA,NA,warmup/dandelion.jpg,flowers,some_college,NA,NA,English,female,NA,flowers,NA,3,1571852096776,3,This is a,2,These are both,sunflower,NA,NA,warmup1,NA
684,What do you think your friend meant?,NA,It is small relative to other,images/dog-parade-basic.png,images/chihuahua.png,15,NA,NA,NA,NA,1,dogs1,linda,NA,NA,0,yes,"Your friend runs far ahead of you, and you see him in the distance:",predicative,NA,20,dogs,NA,0,NA,NA,some_college,small,NA,English,female,NA,NA,You and your friend see the following:,1,1571852096776,NA,NA,2,NA,NA,NA,basic,custom_main_text1,Your friend says: <br/><b>That dog is small.</b>
684,What do you think your friend meant?,NA,It is small relative to other,images/bird-parade-basic.png,images/hummingbird.png,15,NA,NA,NA,NA,1,birds,linda,NA,NA,0,yes,"Your friend runs far ahead of you, and you see him in the distance:",predicative,NA,20,birds,NA,0,NA,NA,some_college,small,NA,English,female,NA,NA,You and your friend see the following:,2,1571852096776,NA,NA,2,NA,NA,NA,basic,custom_main_text1,Your friend says: <br/><b>That bird is small.</b>
684,What do you think your friend meant?,NA,It is small relative to other,images/flower-parade-dandelion.png,images/dandelion.png,15,NA,NA,NA,NA,1,flowers,linda,NA,NA,1,yes,"Your friend runs far ahead of you, and you see him in the distance:",predicative,NA,20,flowers,NA,0,NA,NA,some_college,small,NA,English,female,NA,NA,You and your friend see the following:,3,1571852096776,NA,NA,2,NA,NA,NA,congr,custom_main_text1,Your friend says: <br/><b>That flower is small.</b>
684,NA,swordfish,NA,NA,NA,15,warmup/goldfish.png,swordfish,This is a,NA,1,fish,linda,NA,goldfish,NA,yes,Please label the pictures below.,NA,NA,20,NA,NA,NA,warmup/swordfish.jpg,fish,some_college,NA,NA,English,female,NA,fish,NA,1,1571852096776,1,This is a,2,These are both,goldfish,NA,NA,warmup2,NA
684,NA,Pug,NA,NA,NA,15,warmup/great-dane.jpg,pug,This is a,NA,1,dogs,linda,NA,great dane,NA,yes,Please label the pictures below.,NA,NA,20,NA,NA,NA,warmup/pug.jpg,dog,some_college,NA,NA,English,female,NA,dogs,NA,2,1571852096776,1,This is a,2,These are both,bloodhound,NA,NA,warmup2,NA
684,NA,Pug,NA,NA,NA,15,warmup/great-dane.jpg,pug,This is a,NA,1,dogs,linda,NA,great dane,NA,yes,Please label the pictures below.,NA,NA,20,NA,NA,NA,warmup/pug.jpg,dog,some_college,NA,NA,English,female,NA,dogs,NA,2,1571852096776,2,This is a,2,These are both,great dane,NA,NA,warmup2,NA
684,NA,Pug,NA,NA,NA,15,warmup/great-dane.jpg,pug,This is a,NA,1,dogs,linda,NA,great dane,NA,yes,Please label the pictures below.,NA,NA,20,NA,NA,NA,warmup/pug.jpg,dogs,some_college,NA,NA,English,female,NA,dogs,NA,2,1571852096776,3,This is a,2,These are both,great dane,NA,NA,warmup2,NA
684,NA,sequoia,NA,NA,NA,15,warmup/bonsai.jpg,redwood or sequoia (choose one),This is a,NA,1,trees,linda,NA,bonsai,NA,yes,Please label the pictures below.,NA,NA,20,NA,NA,NA,warmup/sequoia.png,trees,some_college,NA,NA,English,female,NA,trees,NA,3,1571852096776,1,This is a,2,These are both,bonsai,NA,NA,warmup2,NA
684,What do you think your friend meant?,NA,It is big relative to other,images/dog-parade-great-dane.png,images/great-dane.png,15,NA,NA,NA,NA,1,dogs2,linda,NA,NA,1,yes,"Your friend runs far ahead of you, and you see him in the distance:",predicative,NA,20,big dogs,NA,0,NA,NA,some_college,big,NA,English,female,NA,NA,You and your friend see the following:,1,1571852096776,NA,NA,2,NA,NA,NA,congr,custom_main_text2,Your friend says: <br/><b>That dog is big.</b>
684,What do you think your friend meant?,NA,It is big relative to other,images/tree-parade-redwood.png,images/redwood.png,15,NA,NA,NA,NA,1,trees,linda,NA,NA,1,yes,"Your friend runs far ahead of you, and you see him in the distance:",predicative,NA,20,trees,NA,0,NA,NA,some_college,big,NA,English,female,NA,NA,You and your friend see the following:,2,1571852096776,NA,NA,2,NA,NA,NA,congr,custom_main_text2,Your friend says: <br/><b>That tree is big.</b>
684,What do you think your friend meant?,NA,It is big relative to other,images/fish-parade-basic.png,images/swordfish.png,15,NA,NA,NA,NA,1,fish,linda,NA,NA,0,yes,"Your friend runs far ahead of you, and you see him in the distance:",predicative,NA,20,fish,NA,0,NA,NA,some_college,big,NA,English,female,NA,NA,You and your friend see the following:,3,1571852096776,NA,NA,2,NA,NA,NA,basic,custom_main_text2,Your friend says: <br/><b>That fish is big.</b>
682,<i>What do you think Speaker A meant? </i>,NA,The Empire State Building is tall relative to other,NA,NA,15,NA,NA,NA,no,2,NA,patricia,1,NA,NA,yes,NA,NA,"<b> Speaker A: ""The Empire State Building is tall.""</b>",51,buildings,NA,NA,NA,NA,graduated_college,NA,comp_class_warmup,English,male,NA,NA,In the main trials you will be asked to rephrase something a person said. The utterance will contain a word that is <i>relative</i> and your task is to figure out what it is relative to. <br /> <br /> For example: <br /><br />,1,1571852032579,1,NA,1,NA,NA,"buildings, skyscrapers, houses, constructions (choose one)",NA,comp_class_warmup,NA
682,NA,small dog,NA,NA,NA,15,warmup/great-dane.jpg,pug,This is a,no,2,dogs,patricia,NA,great dane,NA,yes,Please label the pictures below.,NA,NA,51,NA,NA,NA,warmup/pug.jpg,dogs,graduated_college,NA,NA,English,male,NA,dogs,NA,1,1571852032579,1,This is a,1,These are both,large dog,NA,NA,warmup1,NA
682,NA,pug,NA,NA,NA,15,warmup/great-dane.jpg,pug,This is a,no,2,dogs,patricia,NA,great dane,NA,yes,Please label the pictures below.,NA,NA,51,NA,NA,NA,warmup/pug.jpg,dogs,graduated_college,NA,NA,English,male,NA,dogs,NA,1,1571852032579,2,This is a,1,These are both,great dane,NA,NA,warmup1,NA
682,NA,dandelion,NA,NA,NA,15,warmup/sunflower.png,dandelion,This is a,no,2,flowers,patricia,NA,sunflower,NA,yes,Please label the pictures below.,NA,NA,51,NA,NA,NA,warmup/dandelion.jpg,flowers,graduated_college,NA,NA,English,male,NA,flowers,NA,2,1571852032579,1,This is a,1,These are both,sunflower,NA,NA,warmup1,NA
682,NA,marlin,NA,NA,NA,15,warmup/goldfish.png,swordfish,This is a,no,2,fish,patricia,NA,goldfish,NA,yes,Please label the pictures below.,NA,NA,51,NA,NA,NA,warmup/swordfish.jpg,fish,graduated_college,NA,NA,English,male,NA,fish,NA,3,1571852032579,1,This is a,1,These are both,goldfish,NA,NA,warmup1,NA
682,NA,swordfish,NA,NA,NA,15,warmup/goldfish.png,swordfish,This is a,no,2,fish,patricia,NA,goldfish,NA,yes,Please label the pictures below.,NA,NA,51,NA,NA,NA,warmup/swordfish.jpg,fish,graduated_college,NA,NA,English,male,NA,fish,NA,3,1571852032579,2,This is a,1,These are both,goldfish,NA,NA,warmup1,NA
682,What do you think your friend meant?,NA,It is small relative to other,images/fish-parade-basic.png,images/goldfish.png,15,NA,NA,NA,no,2,fish,patricia,NA,NA,0,yes,"Your friend runs far ahead of you, and you see him in the distance:",predicative,NA,51,fish,NA,0,NA,NA,graduated_college,small,NA,English,male,NA,NA,You and your friend see the following:,1,1571852032579,NA,NA,1,NA,NA,NA,basic,custom_main_text1,Your friend says: <br/><b>That fish is small.</b>
682,What do you think your friend meant?,NA,It is small relative to other,images/flower-parade-basic.png,images/dandelion.png,15,NA,NA,NA,no,2,flowers,patricia,NA,NA,0,yes,"Your friend runs far ahead of you, and you see him in the distance:",predicative,NA,51,flowers,NA,0,NA,NA,graduated_college,small,NA,English,male,NA,NA,You and your friend see the following:,2,1571852032579,NA,NA,1,NA,NA,NA,basic,custom_main_text1,Your friend says: <br/><b>That flower is small.</b>
682,What do you think your friend meant?,NA,It is big relative to other,images/dog-parade-basic2.png,images/great-dane.png,15,NA,NA,NA,no,2,dogs2,patricia,NA,NA,0,yes,"Your friend runs far ahead of you, and you see him in the distance:",predicative,NA,51,dogs,NA,0,NA,NA,graduated_college,big,NA,English,male,NA,NA,You and your friend see the following:,3,1571852032579,NA,NA,1,NA,NA,NA,basic,custom_main_text1,Your friend says: <br/><b>That dog is big.</b>
682,NA,redwood,NA,NA,NA,15,warmup/bonsai.jpg,redwood or sequoia (choose one),This is a,no,2,trees,patricia,NA,bonsai,NA,yes,Please label the pictures below.,NA,NA,51,NA,NA,NA,warmup/sequoia.png,trees,graduated_college,NA,NA,English,male,NA,trees,NA,1,1571852032579,1,This is a,1,These are both,bonsai,NA,NA,warmup2,NA
682,NA,hummingbird,NA,NA,NA,15,warmup/eagle.jpg,hummingbird,This is a,no,2,birds,patricia,NA,eagle,NA,yes,Please label the pictures below.,NA,NA,51,NA,NA,NA,warmup/colibri.jpg,eagles,graduated_college,NA,NA,English,male,NA,birds,NA,2,1571852032579,1,This is an,1,These are both,eagle,NA,NA,warmup2,NA
682,NA,hummingbird,NA,NA,NA,15,warmup/eagle.jpg,hummingbird,This is a,no,2,birds,patricia,NA,eagle,NA,yes,Please label the pictures below.,NA,NA,51,NA,NA,NA,warmup/colibri.jpg,birds,graduated_college,NA,NA,English,male,NA,birds,NA,2,1571852032579,2,This is an,1,These are both,eagle,NA,NA,warmup2,NA
682,NA,chijuajua,NA,NA,NA,15,warmup/doberman.png,chihuahua,This is a,no,2,dogs,patricia,NA,doberman,NA,yes,Please label the pictures below.,NA,NA,51,NA,NA,NA,warmup/chihuahua.jpg,dogs,graduated_college,NA,NA,English,male,NA,dogs,NA,3,1571852032579,1,This is a,1,These are both,doberman,NA,NA,warmup2,NA
682,NA,chihuahua,NA,NA,NA,15,warmup/doberman.png,chihuahua,This is a,no,2,dogs,patricia,NA,doberman,NA,yes,Please label the pictures below.,NA,NA,51,NA,NA,NA,warmup/chihuahua.jpg,dogs,graduated_college,NA,NA,English,male,NA,dogs,NA,3,1571852032579,2,This is a,1,These are both,doberman,NA,NA,warmup2,NA
682,What do you think your friend meant?,NA,It is small relative to other,images/dog-parade-chihuahua.png,images/chihuahua.png,15,NA,NA,NA,no,2,dogs1,patricia,NA,NA,1,yes,"Your friend runs far ahead of you, and you see him in the distance:",predicative,NA,51,dogs,NA,0,NA,NA,graduated_college,small,NA,English,male,NA,NA,You and your friend see the following:,1,1571852032579,NA,NA,1,NA,NA,NA,congr,custom_main_text2,Your friend says: <br/><b>That dog is small.</b>
682,What do you think your friend meant?,NA,It is big relative to other,images/bird-parade-eagle.png,images/eagle.png,15,NA,NA,NA,no,2,birds,patricia,NA,NA,1,yes,"Your friend runs far ahead of you, and you see him in the distance:",predicative,NA,51,birds,NA,0,NA,NA,graduated_college,big,NA,English,male,NA,NA,You and your friend see the following:,2,1571852032579,NA,NA,1,NA,NA,NA,congr,custom_main_text2,Your friend says: <br/><b>That bird is big.</b>
682,What do you think your friend meant?,NA,It is big relative to other,images/tree-parade-redwood.png,images/redwood.png,15,NA,NA,NA,no,2,trees,patricia,NA,NA,1,yes,"Your friend runs far ahead of you, and you see him in the distance:",predicative,NA,51,trees,NA,0,NA,NA,graduated_college,big,NA,English,male,NA,NA,You and your friend see the following:,3,1571852032579,NA,NA,1,NA,NA,NA,congr,custom_main_text2,Your friend says: <br/><b>That tree is big.</b>
678,<i>What do you think Speaker A meant? </i>,NA,The Empire State Building is tall relative to other,NA,NA,15,NA,NA,NA,Nope,1,NA,patricia,1,NA,NA,yes,NA,NA,"<b> Speaker A: ""The Empire State Building is tall.""</b>",27,buildings,None,NA,NA,NA,graduated_college,NA,comp_class_warmup,English,female,NA,NA,In the main trials you will be asked to rephrase something a person said. The utterance will contain a word that is <i>relative</i> and your task is to figure out what it is relative to. <br /> <br /> For example: <br /><br />,1,1571851751042,1,NA,1,NA,NA,"buildings, skyscrapers, houses, constructions (choose one)",NA,comp_class_warmup,NA
678,NA,pug,NA,NA,NA,15,warmup/great-dane.jpg,pug,This is a,Nope,1,dogs,patricia,NA,great dane,NA,yes,Please label the pictures below.,NA,NA,27,NA,None,NA,warmup/pug.jpg,dogs,graduated_college,NA,NA,English,female,NA,dogs,NA,1,1571851751042,1,This is a,1,These are both,great dane,NA,NA,warmup1,NA
678,NA,hummingbird,NA,NA,NA,15,warmup/eagle.jpg,hummingbird,This is a,Nope,1,birds,patricia,NA,eagle,NA,yes,Please label the pictures below.,NA,NA,27,NA,None,NA,warmup/colibri.jpg,birds,graduated_college,NA,NA,English,female,NA,birds,NA,2,1571851751042,1,This is an,1,These are both,eagle,NA,NA,warmup1,NA
678,NA,redwood,NA,NA,NA,15,warmup/bonsai.jpg,redwood or sequoia (choose one),This is a,Nope,1,trees,patricia,NA,bonsai,NA,yes,Please label the pictures below.,NA,NA,27,NA,None,NA,warmup/sequoia.png,trees,graduated_college,NA,NA,English,female,NA,trees,NA,3,1571851751042,1,This is a,1,These are both,bonsai,NA,NA,warmup1,NA
678,What do you think your friend meant?,NA,It is small relative to other,images/tree-parade-bonsai.png,images/bonsai.png,15,NA,NA,NA,Nope,1,trees,patricia,NA,NA,1,yes,"Your friend runs far ahead of you, and you see him in the distance:",predicative,NA,27,trees,None,0,NA,NA,graduated_college,small,NA,English,female,NA,NA,You and your friend see the following:,1,1571851751042,NA,NA,1,NA,NA,NA,congr,custom_main_text1,Your friend says: <br/><b>That tree is small.</b>
678,What do you think your friend meant?,NA,It is big relative to other,images/dog-parade-great-dane.png,images/great-dane.png,15,NA,NA,NA,Nope,1,dogs2,patricia,NA,NA,1,yes,"Your friend runs far ahead of you, and you see him in the distance:",predicative,NA,27,dogs,None,0,NA,NA,graduated_college,big,NA,English,female,NA,NA,You and your friend see the following:,2,1571851751042,NA,NA,1,NA,NA,NA,congr,custom_main_text1,Your friend says: <br/><b>That dog is big.</b>
678,What do you think your friend meant?,NA,It is small relative to other,images/bird-parade-basic.png,images/hummingbird.png,15,NA,NA,NA,Nope,1,birds,patricia,NA,NA,0,yes,"Your friend runs far ahead of you, and you see him in the distance:",predicative,NA,27,birds,None,0,NA,NA,graduated_college,small,NA,English,female,NA,NA,You and your friend see the following:,3,1571851751042,NA,NA,1,NA,NA,NA,basic,custom_main_text1,Your friend says: <br/><b>That bird is small.</b>
678,NA,dandelion,NA,NA,NA,15,warmup/sunflower.png,dandelion,This is a,Nope,1,flowers,patricia,NA,sunflower,NA,yes,Please label the pictures below.,NA,NA,27,NA,None,NA,warmup/dandelion.jpg,flowers,graduated_college,NA,NA,English,female,NA,flowers,NA,1,1571851751042,1,This is a,1,These are both,sunflower,NA,NA,warmup2,NA
678,NA,swordfish,NA,NA,NA,15,warmup/goldfish.png,swordfish,This is a,Nope,1,fish,patricia,NA,goldfish,NA,yes,Please label the pictures below.,NA,NA,27,NA,None,NA,warmup/swordfish.jpg,fish,graduated_college,NA,NA,English,female,NA,fish,NA,2,1571851751042,1,This is a,1,These are both,goldfish,NA,NA,warmup2,NA
678,NA,chihuahua,NA,NA,NA,15,warmup/doberman.png,chihuahua,This is a,Nope,1,dogs,patricia,NA,doberman,NA,yes,Please label the pictures below.,NA,NA,27,NA,None,NA,warmup/chihuahua.jpg,dogs,graduated_college,NA,NA,English,female,NA,dogs,NA,3,1571851751042,1,This is a,1,These are both,doberman,NA,NA,warmup2,NA
678,What do you think your friend meant?,NA,It is small relative to other,images/fish-parade-basic.png,images/goldfish.png,15,NA,NA,NA,Nope,1,fish,patricia,NA,NA,0,yes,"Your friend runs far ahead of you, and you see him in the distance:",predicative,NA,27,fish,None,0,NA,NA,graduated_college,small,NA,English,female,NA,NA,You and your friend see the following:,1,1571851751042,NA,NA,1,NA,NA,NA,basic,custom_main_text2,Your friend says: <br/><b>That fish is small.</b>
678,What do you think your friend meant?,NA,It is big relative to other,images/flower-parade-basic.png,images/sunflower.png,15,NA,NA,NA,Nope,1,flowers,patricia,NA,NA,0,yes,"Your friend runs far ahead of you, and you see him in the distance:",predicative,NA,27,flowers,None,0,NA,NA,graduated_college,big,NA,English,female,NA,NA,You and your friend see the following:,2,1571851751042,NA,NA,1,NA,NA,NA,basic,custom_main_text2,Your friend says: <br/><b>That flower is big.</b>
678,What do you think your friend meant?,NA,It is big relative to other,images/dog-parade-doberman.png,images/doberman.png,15,NA,NA,NA,Nope,1,dogs1,patricia,NA,NA,1,yes,"Your friend runs far ahead of you, and you see him in the distance:",predicative,NA,27,dogs,None,0,NA,NA,graduated_college,big,NA,English,female,NA,NA,You and your friend see the following:,3,1571851751042,NA,NA,1,NA,NA,NA,congr,custom_main_text2,Your friend says: <br/><b>That dog is big.</b>
677,<i>What do you think Speaker A meant? </i>,NA,The Empire State Building is tall relative to other,NA,NA,15,NA,NA,NA,No,1,NA,margaret,1,NA,NA,yes,NA,NA,"<b> Speaker A: ""The Empire State Building is tall.""</b>",26,buildings,No comment,NA,NA,NA,higher_degree,NA,comp_class_warmup,Vietnamese,male,NA,NA,In the main trials you will be asked to rephrase something a person said. The utterance will contain a word that is <i>relative</i> and your task is to figure out what it is relative to. <br /> <br /> For example: <br /><br />,1,1571852021126,1,NA,1.5,NA,NA,"buildings, skyscrapers, houses, constructions (choose one)",NA,comp_class_warmup,NA
677,NA,swordfish,NA,NA,NA,15,warmup/goldfish.png,swordfish,This is a,No,1,fish,margaret,NA,goldfish,NA,yes,Please label the pictures below.,NA,NA,26,NA,No comment,NA,warmup/swordfish.jpg,fish,higher_degree,NA,NA,Vietnamese,male,NA,fish,NA,1,1571852021126,1,This is a,1.5,These are both,golden fish,NA,NA,warmup1,NA
677,NA,swordfish,NA,NA,NA,15,warmup/goldfish.png,swordfish,This is a,No,1,fish,margaret,NA,goldfish,NA,yes,Please label the pictures below.,NA,NA,26,NA,No comment,NA,warmup/swordfish.jpg,fish,higher_degree,NA,NA,Vietnamese,male,NA,fish,NA,1,1571852021126,2,This is a,1.5,These are both,goldfish,NA,NA,warmup1,NA
677,NA,hummingbird,NA,NA,NA,15,warmup/eagle.jpg,hummingbird,This is a,No,1,birds,margaret,NA,eagle,NA,yes,Please label the pictures below.,NA,NA,26,NA,No comment,NA,warmup/colibri.jpg,bird,higher_degree,NA,NA,Vietnamese,male,NA,birds,NA,2,1571852021126,1,This is an,1.5,These are both,eagle,NA,NA,warmup1,NA
677,NA,hummingbird,NA,NA,NA,15,warmup/eagle.jpg,hummingbird,This is a,No,1,birds,margaret,NA,eagle,NA,yes,Please label the pictures below.,NA,NA,26,NA,No comment,NA,warmup/colibri.jpg,birds,higher_degree,NA,NA,Vietnamese,male,NA,birds,NA,2,1571852021126,2,This is an,1.5,These are both,eagle,NA,NA,warmup1,NA
677,NA,pug,NA,NA,NA,15,warmup/great-dane.jpg,pug,This is a,No,1,dogs,margaret,NA,great dane,NA,yes,Please label the pictures below.,NA,NA,26,NA,No comment,NA,warmup/pug.jpg,dogs,higher_degree,NA,NA,Vietnamese,male,NA,dogs,NA,3,1571852021126,1,This is a,1.5,These are both,retri,NA,NA,warmup1,NA
677,NA,pug,NA,NA,NA,15,warmup/great-dane.jpg,pug,This is a,No,1,dogs,margaret,NA,great dane,NA,yes,Please label the pictures below.,NA,NA,26,NA,No comment,NA,warmup/pug.jpg,dogs,higher_degree,NA,NA,Vietnamese,male,NA,dogs,NA,3,1571852021126,2,This is a,1.5,These are both,great dane,NA,NA,warmup1,NA
677,What do you think your friend meant?,NA,It is big relative to other,images/bird-parade-eagle.png,images/eagle.png,15,NA,NA,NA,No,1,birds,margaret,NA,NA,1,yes,"Your friend runs far ahead of you, and you see him in the distance:",predicative,NA,26,birds,No comment,0,NA,NA,higher_degree,big,NA,Vietnamese,male,NA,NA,You and your friend see the following:,1,1571852021126,NA,NA,1.5,NA,NA,NA,congr,custom_main_text1,Your friend says: <br/><b>That bird is big.</b>
677,What do you think your friend meant?,NA,It is small relative to other,images/fish-parade-basic.png,images/goldfish.png,15,NA,NA,NA,No,1,fish,margaret,NA,NA,0,yes,"Your friend runs far ahead of you, and you see him in the distance:",predicative,NA,26,fish,No comment,0,NA,NA,higher_degree,small,NA,Vietnamese,male,NA,NA,You and your friend see the following:,2,1571852021126,NA,NA,1.5,NA,NA,NA,basic,custom_main_text1,Your friend says: <br/><b>That fish is small.</b>
677,What do you think your friend meant?,NA,It is small relative to other,images/dog-parade-basic2.png,images/pug.png,15,NA,NA,NA,No,1,dogs2,margaret,NA,NA,0,yes,"Your friend runs far ahead of you, and you see him in the distance:",predicative,NA,26,dogs,No comment,0,NA,NA,higher_degree,small,NA,Vietnamese,male,NA,NA,You and your friend see the following:,3,1571852021126,NA,NA,1.5,NA,NA,NA,basic,custom_main_text1,Your friend says: <br/><b>That dog is small.</b>
677,NA,redwood,NA,NA,NA,15,warmup/bonsai.jpg,redwood or sequoia (choose one),This is a,No,1,trees,margaret,NA,bonsai,NA,yes,Please label the pictures below.,NA,NA,26,NA,No comment,NA,warmup/sequoia.png,trees,higher_degree,NA,NA,Vietnamese,male,NA,trees,NA,1,1571852021126,1,This is a,1.5,These are both,bonsai,NA,NA,warmup2,NA
677,NA,daisy,NA,NA,NA,15,warmup/sunflower.png,dandelion,This is a,No,1,flowers,margaret,NA,sunflower,NA,yes,Please label the pictures below.,NA,NA,26,NA,No comment,NA,warmup/dandelion.jpg,flowers,higher_degree,NA,NA,Vietnamese,male,NA,flowers,NA,2,1571852021126,1,This is a,1.5,These are both,sunflower,NA,NA,warmup2,NA
677,NA,dandelion,NA,NA,NA,15,warmup/sunflower.png,dandelion,This is a,No,1,flowers,margaret,NA,sunflower,NA,yes,Please label the pictures below.,NA,NA,26,NA,No comment,NA,warmup/dandelion.jpg,flowers,higher_degree,NA,NA,Vietnamese,male,NA,flowers,NA,2,1571852021126,2,This is a,1.5,These are both,sunflower,NA,NA,warmup2,NA
677,NA,chihuahua,NA,NA,NA,15,warmup/doberman.png,chihuahua,This is a,No,1,dogs,margaret,NA,doberman,NA,yes,Please label the pictures below.,NA,NA,26,NA,No comment,NA,warmup/chihuahua.jpg,dogs,higher_degree,NA,NA,Vietnamese,male,NA,dogs,NA,3,1571852021126,1,This is a,1.5,These are both,rotweiler,NA,NA,warmup2,NA
677,NA,chihuahua,NA,NA,NA,15,warmup/doberman.png,chihuahua,This is a,No,1,dogs,margaret,NA,doberman,NA,yes,Please label the pictures below.,NA,NA,26,NA,No comment,NA,warmup/chihuahua.jpg,dogs,higher_degree,NA,NA,Vietnamese,male,NA,dogs,NA,3,1571852021126,2,This is a,1.5,These are both,doberman,NA,NA,warmup2,NA
677,What do you think your friend meant?,NA,It is small relative to other,images/dog-parade-chihuahua.png,images/chihuahua.png,15,NA,NA,NA,No,1,dogs1,margaret,NA,NA,1,yes,"Your friend runs far ahead of you, and you see him in the distance:",predicative,NA,26,dogs,No comment,0,NA,NA,higher_degree,small,NA,Vietnamese,male,NA,NA,You and your friend see the following:,1,1571852021126,NA,NA,1.5,NA,NA,NA,congr,custom_main_text2,Your friend says: <br/><b>That dog is small.</b>
677,What do you think your friend meant?,NA,It is big relative to other,images/tree-parade-basic.png,images/redwood.png,15,NA,NA,NA,No,1,trees,margaret,NA,NA,0,yes,"Your friend runs far ahead of you, and you see him in the distance:",predicative,NA,26,trees,No comment,0,NA,NA,higher_degree,big,NA,Vietnamese,male,NA,NA,You and your friend see the following:,2,1571852021126,NA,NA,1.5,NA,NA,NA,basic,custom_main_text2,Your friend says: <br/><b>That tree is big.</b>
677,What do you think your friend meant?,NA,It is big relative to other,images/flower-parade-sunflower.png,images/sunflower.png,15,NA,NA,NA,No,1,flowers,margaret,NA,NA,1,yes,"Your friend runs far ahead of you, and you see him in the distance:",predicative,NA,26,flowers,No comment,0,NA,NA,higher_degree,big,NA,Vietnamese,male,NA,NA,You and your friend see the following:,3,1571852021126,NA,NA,1.5,NA,NA,NA,congr,custom_main_text2,Your friend says: <br/><b>That flower is big.</b>
676,<i>What do you think Speaker A meant? </i>,NA,The Empire State Building is tall relative to other,NA,NA,15,NA,NA,NA,No issues to report.,0,NA,sarah,1,NA,NA,yes,NA,NA,"<b> Speaker A: ""The Empire State Building is tall.""</b>",31,buildings,NA,NA,NA,NA,graduated_high_school,NA,comp_class_warmup,English,male,NA,NA,In the main trials you will be asked to rephrase something a person said. The utterance will contain a word that is <i>relative</i> and your task is to figure out what it is relative to. <br /> <br /> For example: <br /><br />,1,1571851836332,1,NA,1.1,NA,NA,"buildings, skyscrapers, houses, constructions (choose one)",NA,comp_class_warmup,NA
676,NA,hummingbird,NA,NA,NA,15,warmup/eagle.jpg,hummingbird,This is a,No issues to report.,0,birds,sarah,NA,eagle,NA,yes,Please label the pictures below.,NA,NA,31,NA,NA,NA,warmup/colibri.jpg,birds,graduated_high_school,NA,NA,English,male,NA,birds,NA,1,1571851836332,1,This is an,1.1,These are both,eagle,NA,NA,warmup1,NA
676,NA,redwood,NA,NA,NA,15,warmup/bonsai.jpg,redwood or sequoia (choose one),This is a,No issues to report.,0,trees,sarah,NA,bonsai,NA,yes,Please label the pictures below.,NA,NA,31,NA,NA,NA,warmup/sequoia.png,trees,graduated_high_school,NA,NA,English,male,NA,trees,NA,2,1571851836332,1,This is a,1.1,These are both,bonzai,NA,NA,warmup1,NA
676,NA,redwood,NA,NA,NA,15,warmup/bonsai.jpg,redwood or sequoia (choose one),This is a,No issues to report.,0,trees,sarah,NA,bonsai,NA,yes,Please label the pictures below.,NA,NA,31,NA,NA,NA,warmup/sequoia.png,trees,graduated_high_school,NA,NA,English,male,NA,trees,NA,2,1571851836332,2,This is a,1.1,These are both,bonsai,NA,NA,warmup1,NA
676,NA,pug,NA,NA,NA,15,warmup/great-dane.jpg,pug,This is a,No issues to report.,0,dogs,sarah,NA,great dane,NA,yes,Please label the pictures below.,NA,NA,31,NA,NA,NA,warmup/pug.jpg,dogs,graduated_high_school,NA,NA,English,male,NA,dogs,NA,3,1571851836332,1,This is a,1.1,These are both,great dane,NA,NA,warmup1,NA
676,What do you think your friend meant?,NA,It is small relative to other,images/tree-parade-basic.png,images/bonsai.png,15,NA,NA,NA,No issues to report.,0,trees,sarah,NA,NA,0,yes,"Your friend runs far ahead of you, and you see him in the distance:",predicative,NA,31,trees,NA,0,NA,NA,graduated_high_school,small,NA,English,male,NA,NA,You and your friend see the following:,1,1571851836332,NA,NA,1.1,NA,NA,NA,basic,custom_main_text1,Your friend says: <br/><b>That tree is small.</b>
676,What do you think your friend meant?,NA,It is big relative to other,images/bird-parade-eagle.png,images/eagle.png,15,NA,NA,NA,No issues to report.,0,birds,sarah,NA,NA,1,yes,"Your friend runs far ahead of you, and you see him in the distance:",predicative,NA,31,birds,NA,0,NA,NA,graduated_high_school,big,NA,English,male,NA,NA,You and your friend see the following:,2,1571851836332,NA,NA,1.1,NA,NA,NA,congr,custom_main_text1,Your friend says: <br/><b>That bird is big.</b>
676,What do you think your friend meant?,NA,It is big relative to other,images/dog-parade-basic2.png,images/great-dane.png,15,NA,NA,NA,No issues to report.,0,dogs2,sarah,NA,NA,0,yes,"Your friend runs far ahead of you, and you see him in the distance:",predicative,NA,31,dogs,NA,0,NA,NA,graduated_high_school,big,NA,English,male,NA,NA,You and your friend see the following:,3,1571851836332,NA,NA,1.1,NA,NA,NA,basic,custom_main_text1,Your friend says: <br/><b>That dog is big.</b>
676,NA,swordfish,NA,NA,NA,15,warmup/goldfish.png,swordfish,This is a,No issues to report.,0,fish,sarah,NA,goldfish,NA,yes,Please label the pictures below.,NA,NA,31,NA,NA,NA,warmup/swordfish.jpg,fish,graduated_high_school,NA,NA,English,male,NA,fish,NA,1,1571851836332,1,This is a,1.1,These are both,goldfish,NA,NA,warmup2,NA
676,NA,dandylion,NA,NA,NA,15,warmup/sunflower.png,dandelion,This is a,No issues to report.,0,flowers,sarah,NA,sunflower,NA,yes,Please label the pictures below.,NA,NA,31,NA,NA,NA,warmup/dandelion.jpg,plants,graduated_high_school,NA,NA,English,male,NA,flowers,NA,2,1571851836332,1,This is a,1.1,These are both,sunflower,NA,NA,warmup2,NA
676,NA,dandelion,NA,NA,NA,15,warmup/sunflower.png,dandelion,This is a,No issues to report.,0,flowers,sarah,NA,sunflower,NA,yes,Please label the pictures below.,NA,NA,31,NA,NA,NA,warmup/dandelion.jpg,flowers,graduated_high_school,NA,NA,English,male,NA,flowers,NA,2,1571851836332,2,This is a,1.1,These are both,sunflower,NA,NA,warmup2,NA
676,NA,chauhsd,NA,NA,NA,15,warmup/doberman.png,chihuahua,This is a,No issues to report.,0,dogs,sarah,NA,doberman,NA,yes,Please label the pictures below.,NA,NA,31,NA,NA,NA,warmup/chihuahua.jpg,dogs,graduated_high_school,NA,NA,English,male,NA,dogs,NA,3,1571851836332,1,This is a,1.1,These are both,doberman,NA,NA,warmup2,NA
676,NA,chihuahua,NA,NA,NA,15,warmup/doberman.png,chihuahua,This is a,No issues to report.,0,dogs,sarah,NA,doberman,NA,yes,Please label the pictures below.,NA,NA,31,NA,NA,NA,warmup/chihuahua.jpg,dogs,graduated_high_school,NA,NA,English,male,NA,dogs,NA,3,1571851836332,2,This is a,1.1,These are both,doberman,NA,NA,warmup2,NA
676,What do you think your friend meant?,NA,It is small relative to other,images/fish-parade-basic.png,images/goldfish.png,15,NA,NA,NA,No issues to report.,0,fish,sarah,NA,NA,0,yes,"Your friend runs far ahead of you, and you see him in the distance:",predicative,NA,31,fish,NA,0,NA,NA,graduated_high_school,small,NA,English,male,NA,NA,You and your friend see the following:,1,1571851836332,NA,NA,1.1,NA,NA,NA,basic,custom_main_text2,Your friend says: <br/><b>That fish is small.</b>
676,What do you think your friend meant?,NA,It is small relative to other,images/dog-parade-chihuahua.png,images/chihuahua.png,15,NA,NA,NA,No issues to report.,0,dogs1,sarah,NA,NA,1,yes,"Your friend runs far ahead of you, and you see him in the distance:",predicative,NA,31,dogs,NA,0,NA,NA,graduated_high_school,small,NA,English,male,NA,NA,You and your friend see the following:,2,1571851836332,NA,NA,1.1,NA,NA,NA,congr,custom_main_text2,Your friend says: <br/><b>That dog is small.</b>
676,What do you think your friend meant?,NA,It is big relative to other,images/flower-parade-sunflower.png,images/sunflower.png,15,NA,NA,NA,No issues to report.,0,flowers,sarah,NA,NA,1,yes,"Your friend runs far ahead of you, and you see him in the distance:",predicative,NA,31,flowers,NA,0,NA,NA,graduated_high_school,big,NA,English,male,NA,NA,You and your friend see the following:,3,1571851836332,NA,NA,1.1,NA,NA,NA,congr,custom_main_text2,Your friend says: <br/><b>That flower is big.</b>
672,<i>What do you think Speaker A meant? </i>,NA,The Empire State Building is tall relative to other,NA,NA,15,NA,NA,NA,no,1,NA,elizabeth,1,NA,NA,yes,NA,NA,"<b> Speaker A: ""The Empire State Building is tall.""</b>",35,buildings,"i never know what's going on in these hits but i appreciate the buck all the same, god bless",NA,NA,NA,some_college,NA,comp_class_warmup,english,male,NA,NA,In the main trials you will be asked to rephrase something a person said. The utterance will contain a word that is <i>relative</i> and your task is to figure out what it is relative to. <br /> <br /> For example: <br /><br />,1,1571851615291,1,NA,1.25,NA,NA,"buildings, skyscrapers, houses, constructions (choose one)",NA,comp_class_warmup,NA
672,NA,hummingbird,NA,NA,NA,15,warmup/eagle.jpg,hummingbird,This is a,no,1,birds,elizabeth,NA,eagle,NA,yes,Please label the pictures below.,NA,NA,35,NA,"i never know what's going on in these hits but i appreciate the buck all the same, god bless",NA,warmup/colibri.jpg,birds,some_college,NA,NA,english,male,NA,birds,NA,1,1571851615291,1,This is an,1.25,These are both,eagle,NA,NA,warmup1,NA
672,NA,chihuahua,NA,NA,NA,15,warmup/doberman.png,chihuahua,This is a,no,1,dogs,elizabeth,NA,doberman,NA,yes,Please label the pictures below.,NA,NA,35,NA,"i never know what's going on in these hits but i appreciate the buck all the same, god bless",NA,warmup/chihuahua.jpg,dogs,some_college,NA,NA,english,male,NA,dogs,NA,2,1571851615291,1,This is a,1.25,These are both,doberman,NA,NA,warmup1,NA
672,NA,sequoia,NA,NA,NA,15,warmup/bonsai.jpg,redwood or sequoia (choose one),This is a,no,1,trees,elizabeth,NA,bonsai,NA,yes,Please label the pictures below.,NA,NA,35,NA,"i never know what's going on in these hits but i appreciate the buck all the same, god bless",NA,warmup/sequoia.png,trees,some_college,NA,NA,english,male,NA,trees,NA,3,1571851615291,1,This is a,1.25,These are both,bonsai,NA,NA,warmup1,NA
672,What do you think your friend meant?,NA,It is big relative to other,images/bird-parade-basic.png,images/eagle.png,15,NA,NA,NA,no,1,birds,elizabeth,NA,NA,0,yes,"Your friend runs far ahead of you, and you see him in the distance:",predicative,NA,35,birds,"i never know what's going on in these hits but i appreciate the buck all the same, god bless",0,NA,NA,some_college,big,NA,english,male,NA,NA,You and your friend see the following:,1,1571851615291,NA,NA,1.25,NA,NA,NA,basic,custom_main_text1,Your friend says: <br/><b>That bird is big.</b>
672,What do you think your friend meant?,NA,It is big relative to other,images/tree-parade-basic.png,images/redwood.png,15,NA,NA,NA,no,1,trees,elizabeth,NA,NA,0,yes,"Your friend runs far ahead of you, and you see him in the distance:",predicative,NA,35,trees,"i never know what's going on in these hits but i appreciate the buck all the same, god bless",0,NA,NA,some_college,big,NA,english,male,NA,NA,You and your friend see the following:,2,1571851615291,NA,NA,1.25,NA,NA,NA,basic,custom_main_text1,Your friend says: <br/><b>That tree is big.</b>
672,What do you think your friend meant?,NA,It is big relative to other,images/dog-parade-doberman.png,images/doberman.png,15,NA,NA,NA,no,1,dogs1,elizabeth,NA,NA,1,yes,"Your friend runs far ahead of you, and you see him in the distance:",predicative,NA,35,breeds,"i never know what's going on in these hits but i appreciate the buck all the same, god bless",0,NA,NA,some_college,big,NA,english,male,NA,NA,You and your friend see the following:,3,1571851615291,NA,NA,1.25,NA,NA,NA,congr,custom_main_text1,Your friend says: <br/><b>That dog is big.</b>
672,NA,dandelion,NA,NA,NA,15,warmup/sunflower.png,dandelion,This is a,no,1,flowers,elizabeth,NA,sunflower,NA,yes,Please label the pictures below.,NA,NA,35,NA,"i never know what's going on in these hits but i appreciate the buck all the same, god bless",NA,warmup/dandelion.jpg,plants,some_college,NA,NA,english,male,NA,flowers,NA,1,1571851615291,1,This is a,1.25,These are both,sunflower,NA,NA,warmup2,NA
672,NA,dandelion,NA,NA,NA,15,warmup/sunflower.png,dandelion,This is a,no,1,flowers,elizabeth,NA,sunflower,NA,yes,Please label the pictures below.,NA,NA,35,NA,"i never know what's going on in these hits but i appreciate the buck all the same, god bless",NA,warmup/dandelion.jpg,flowers,some_college,NA,NA,english,male,NA,flowers,NA,1,1571851615291,2,This is a,1.25,These are both,sunflower,NA,NA,warmup2,NA
672,NA,pug,NA,NA,NA,15,warmup/great-dane.jpg,pug,This is a,no,1,dogs,elizabeth,NA,great dane,NA,yes,Please label the pictures below.,NA,NA,35,NA,"i never know what's going on in these hits but i appreciate the buck all the same, god bless",NA,warmup/pug.jpg,dogs,some_college,NA,NA,english,male,NA,dogs,NA,2,1571851615291,1,This is a,1.25,These are both,labrador,NA,NA,warmup2,NA
672,NA,pug,NA,NA,NA,15,warmup/great-dane.jpg,pug,This is a,no,1,dogs,elizabeth,NA,great dane,NA,yes,Please label the pictures below.,NA,NA,35,NA,"i never know what's going on in these hits but i appreciate the buck all the same, god bless",NA,warmup/pug.jpg,dogs,some_college,NA,NA,english,male,NA,dogs,NA,2,1571851615291,2,This is a,1.25,These are both,great dane,NA,NA,warmup2,NA
672,NA,sworfish,NA,NA,NA,15,warmup/goldfish.png,swordfish,This is a,no,1,fish,elizabeth,NA,goldfish,NA,yes,Please label the pictures below.,NA,NA,35,NA,"i never know what's going on in these hits but i appreciate the buck all the same, god bless",NA,warmup/swordfish.jpg,fish,some_college,NA,NA,english,male,NA,fish,NA,3,1571851615291,1,This is a,1.25,These are both,guppy,NA,NA,warmup2,NA
672,NA,swordfish,NA,NA,NA,15,warmup/goldfish.png,swordfish,This is a,no,1,fish,elizabeth,NA,goldfish,NA,yes,Please label the pictures below.,NA,NA,35,NA,"i never know what's going on in these hits but i appreciate the buck all the same, god bless",NA,warmup/swordfish.jpg,fish,some_college,NA,NA,english,male,NA,fish,NA,3,1571851615291,2,This is a,1.25,These are both,goldfish,NA,NA,warmup2,NA
672,What do you think your friend meant?,NA,It is small relative to other,images/dog-parade-basic2.png,images/pug.png,15,NA,NA,NA,no,1,dogs2,elizabeth,NA,NA,0,yes,"Your friend runs far ahead of you, and you see him in the distance:",predicative,NA,35,dogs,"i never know what's going on in these hits but i appreciate the buck all the same, god bless",0,NA,NA,some_college,small,NA,english,male,NA,NA,You and your friend see the following:,1,1571851615291,NA,NA,1.25,NA,NA,NA,basic,custom_main_text2,Your friend says: <br/><b>That dog is small.</b>
672,What do you think your friend meant?,NA,It is small relative to other,images/fish-parade-goldfish.png,images/goldfish.png,15,NA,NA,NA,no,1,fish,elizabeth,NA,NA,1,yes,"Your friend runs far ahead of you, and you see him in the distance:",predicative,NA,35,types of fish,"i never know what's going on in these hits but i appreciate the buck all the same, god bless",0,NA,NA,some_college,small,NA,english,male,NA,NA,You and your friend see the following:,2,1571851615291,NA,NA,1.25,NA,NA,NA,congr,custom_main_text2,Your friend says: <br/><b>That fish is small.</b>
672,What do you think your friend meant?,NA,It is small relative to other,images/flower-parade-dandelion.png,images/dandelion.png,15,NA,NA,NA,no,1,flowers,elizabeth,NA,NA,1,yes,"Your friend runs far ahead of you, and you see him in the distance:",predicative,NA,35,types of flowers,"i never know what's going on in these hits but i appreciate the buck all the same, god bless",0,NA,NA,some_college,small,NA,english,male,NA,NA,You and your friend see the following:,3,1571851615291,NA,NA,1.25,NA,NA,NA,congr,custom_main_text2,Your friend says: <br/><b>That flower is small.</b>
665,<i>What do you think Speaker A meant? </i>,NA,The Empire State Building is tall relative to other,NA,NA,15,NA,NA,NA,nope,1,NA,Susan,1,NA,NA,yes,NA,NA,"<b> Speaker A: ""The Empire State Building is tall.""</b>",62,buildings,none,NA,NA,NA,graduated_high_school,NA,comp_class_warmup,English,female,NA,NA,In the main trials you will be asked to rephrase something a person said. The utterance will contain a word that is <i>relative</i> and your task is to figure out what it is relative to. <br /> <br /> For example: <br /><br />,1,1571851429860,1,NA,1.5,NA,NA,"buildings, skyscrapers, houses, constructions (choose one)",NA,comp_class_warmup,NA
665,NA,pug,NA,NA,NA,15,warmup/great-dane.jpg,pug,This is a,nope,1,dogs,Susan,NA,great dane,NA,yes,Please label the pictures below.,NA,NA,62,NA,none,NA,warmup/pug.jpg,dogs,graduated_high_school,NA,NA,English,female,NA,dogs,NA,1,1571851429860,1,This is a,1.5,These are both,great dane,NA,NA,warmup1,NA
665,NA,flower,NA,NA,NA,15,warmup/sunflower.png,dandelion,This is a,nope,1,flowers,Susan,NA,sunflower,NA,yes,Please label the pictures below.,NA,NA,62,NA,none,NA,warmup/dandelion.jpg,flowers,graduated_high_school,NA,NA,English,female,NA,flowers,NA,2,1571851429860,1,This is a,1.5,These are both,sunflower,NA,NA,warmup1,NA
665,NA,dandelion,NA,NA,NA,15,warmup/sunflower.png,dandelion,This is a,nope,1,flowers,Susan,NA,sunflower,NA,yes,Please label the pictures below.,NA,NA,62,NA,none,NA,warmup/dandelion.jpg,flowers,graduated_high_school,NA,NA,English,female,NA,flowers,NA,2,1571851429860,2,This is a,1.5,These are both,sunflower,NA,NA,warmup1,NA
665,NA,bird,NA,NA,NA,15,warmup/eagle.jpg,hummingbird,This is a,nope,1,birds,Susan,NA,eagle,NA,yes,Please label the pictures below.,NA,NA,62,NA,none,NA,warmup/colibri.jpg,birds,graduated_high_school,NA,NA,English,female,NA,birds,NA,3,1571851429860,1,This is an,1.5,These are both,eagle,NA,NA,warmup1,NA
665,NA,hummingbird,NA,NA,NA,15,warmup/eagle.jpg,hummingbird,This is a,nope,1,birds,Susan,NA,eagle,NA,yes,Please label the pictures below.,NA,NA,62,NA,none,NA,warmup/colibri.jpg,birds,graduated_high_school,NA,NA,English,female,NA,birds,NA,3,1571851429860,2,This is an,1.5,These are both,eagle,NA,NA,warmup1,NA
665,What do you think your friend meant?,NA,It is small relative to other,images/dog-parade-basic2.png,images/pug.png,15,NA,NA,NA,nope,1,dogs2,Susan,NA,NA,0,yes,"Your friend runs far ahead of you, and you see him in the distance:",predicative,NA,62,dogs,none,0,NA,NA,graduated_high_school,small,NA,English,female,NA,NA,You and your friend see the following:,1,1571851429860,NA,NA,1.5,NA,NA,NA,basic,custom_main_text1,Your friend says: <br/><b>That dog is small.</b>
665,What do you think your friend meant?,NA,It is big relative to other,images/flower-parade-sunflower.png,images/sunflower.png,15,NA,NA,NA,nope,1,flowers,Susan,NA,NA,1,yes,"Your friend runs far ahead of you, and you see him in the distance:",predicative,NA,62,flowers,none,0,NA,NA,graduated_high_school,big,NA,English,female,NA,NA,You and your friend see the following:,2,1571851429860,NA,NA,1.5,NA,NA,NA,congr,custom_main_text1,Your friend says: <br/><b>That flower is big.</b>
665,What do you think your friend meant?,NA,It is big relative to other,images/bird-parade-eagle.png,images/eagle.png,15,NA,NA,NA,nope,1,birds,Susan,NA,NA,1,yes,"Your friend runs far ahead of you, and you see him in the distance:",predicative,NA,62,birds,none,0,NA,NA,graduated_high_school,big,NA,English,female,NA,NA,You and your friend see the following:,3,1571851429860,NA,NA,1.5,NA,NA,NA,congr,custom_main_text1,Your friend says: <br/><b>That bird is big.</b>
665,NA,fish,NA,NA,NA,15,warmup/goldfish.png,swordfish,This is a,nope,1,fish,Susan,NA,goldfish,NA,yes,Please label the pictures below.,NA,NA,62,NA,none,NA,warmup/swordfish.jpg,fish,graduated_high_school,NA,NA,English,female,NA,fish,NA,1,1571851429860,1,This is a,1.5,These are both,goldfish,NA,NA,warmup2,NA
665,NA,swordfish,NA,NA,NA,15,warmup/goldfish.png,swordfish,This is a,nope,1,fish,Susan,NA,goldfish,NA,yes,Please label the pictures below.,NA,NA,62,NA,none,NA,warmup/swordfish.jpg,fish,graduated_high_school,NA,NA,English,female,NA,fish,NA,1,1571851429860,2,This is a,1.5,These are both,goldfish,NA,NA,warmup2,NA
665,NA,oak,NA,NA,NA,15,warmup/bonsai.jpg,redwood or sequoia (choose one),This is a,nope,1,trees,Susan,NA,bonsai,NA,yes,Please label the pictures below.,NA,NA,62,NA,none,NA,warmup/sequoia.png,trees,graduated_high_school,NA,NA,English,female,NA,trees,NA,2,1571851429860,1,This is a,1.5,These are both,bonzai,NA,NA,warmup2,NA
665,NA,redwood,NA,NA,NA,15,warmup/bonsai.jpg,redwood or sequoia (choose one),This is a,nope,1,trees,Susan,NA,bonsai,NA,yes,Please label the pictures below.,NA,NA,62,NA,none,NA,warmup/sequoia.png,trees,graduated_high_school,NA,NA,English,female,NA,trees,NA,2,1571851429860,2,This is a,1.5,These are both,bonzai,NA,NA,warmup2,NA
665,NA,redwood,NA,NA,NA,15,warmup/bonsai.jpg,redwood or sequoia (choose one),This is a,nope,1,trees,Susan,NA,bonsai,NA,yes,Please label the pictures below.,NA,NA,62,NA,none,NA,warmup/sequoia.png,trees,graduated_high_school,NA,NA,English,female,NA,trees,NA,2,1571851429860,3,This is a,1.5,These are both,bonsai,NA,NA,warmup2,NA
665,NA,Chihuahua,NA,NA,NA,15,warmup/doberman.png,chihuahua,This is a,nope,1,dogs,Susan,NA,doberman,NA,yes,Please label the pictures below.,NA,NA,62,NA,none,NA,warmup/chihuahua.jpg,dogs,graduated_high_school,NA,NA,English,female,NA,dogs,NA,3,1571851429860,1,This is a,1.5,These are both,Doberman,NA,NA,warmup2,NA
665,What do you think your friend meant?,NA,It is small relative to other,images/fish-parade-basic.png,images/goldfish.png,15,NA,NA,NA,nope,1,fish,Susan,NA,NA,0,yes,"Your friend runs far ahead of you, and you see him in the distance:",predicative,NA,62,fish,none,0,NA,NA,graduated_high_school,small,NA,English,female,NA,NA,You and your friend see the following:,1,1571851429860,NA,NA,1.5,NA,NA,NA,basic,custom_main_text2,Your friend says: <br/><b>That fish is small.</b>
665,What do you think your friend meant?,NA,It is small relative to other,images/tree-parade-basic.png,images/bonsai.png,15,NA,NA,NA,nope,1,trees,Susan,NA,NA,0,yes,"Your friend runs far ahead of you, and you see him in the distance:",predicative,NA,62,trees,none,0,NA,NA,graduated_high_school,small,NA,English,female,NA,NA,You and your friend see the following:,2,1571851429860,NA,NA,1.5,NA,NA,NA,basic,custom_main_text2,Your friend says: <br/><b>That tree is small.</b>
665,What do you think your friend meant?,NA,It is big relative to other,images/dog-parade-doberman.png,images/doberman.png,15,NA,NA,NA,nope,1,dogs1,Susan,NA,NA,1,yes,"Your friend runs far ahead of you, and you see him in the distance:",predicative,NA,62,dogs,none,0,NA,NA,graduated_high_school,big,NA,English,female,NA,NA,You and your friend see the following:,3,1571851429860,NA,NA,1.5,NA,NA,NA,congr,custom_main_text2,Your friend says: <br/><b>That dog is big.</b>
664,<i>What do you think Speaker A meant? </i>,NA,The Empire State Building is tall relative to other,NA,NA,15,NA,NA,NA,No problems.,2,NA,sarah,1,NA,NA,yes,NA,NA,"<b> Speaker A: ""The Empire State Building is tall.""</b>",20,buildings,NA,NA,NA,NA,some_college,NA,comp_class_warmup,English,female,NA,NA,In the main trials you will be asked to rephrase something a person said. The utterance will contain a word that is <i>relative</i> and your task is to figure out what it is relative to. <br /> <br /> For example: <br /><br />,1,1571851435290,1,NA,1,NA,NA,"buildings, skyscrapers, houses, constructions (choose one)",NA,comp_class_warmup,NA
664,NA,hummingbird,NA,NA,NA,15,warmup/eagle.jpg,hummingbird,This is a,No problems.,2,birds,sarah,NA,eagle,NA,yes,Please label the pictures below.,NA,NA,20,NA,NA,NA,warmup/colibri.jpg,birds,some_college,NA,NA,English,female,NA,birds,NA,1,1571851435290,1,This is an,1,These are both,eagle,NA,NA,warmup1,NA
664,NA,tree,NA,NA,NA,15,warmup/bonsai.jpg,redwood or sequoia (choose one),This is a,No problems.,2,trees,sarah,NA,bonsai,NA,yes,Please label the pictures below.,NA,NA,20,NA,NA,NA,warmup/sequoia.png,plants,some_college,NA,NA,English,female,NA,trees,NA,2,1571851435290,1,This is a,1,These are both,bonsai,NA,NA,warmup1,NA
664,NA,redwood,NA,NA,NA,15,warmup/bonsai.jpg,redwood or sequoia (choose one),This is a,No problems.,2,trees,sarah,NA,bonsai,NA,yes,Please label the pictures below.,NA,NA,20,NA,NA,NA,warmup/sequoia.png,trees,some_college,NA,NA,English,female,NA,trees,NA,2,1571851435290,2,This is a,1,These are both,bonsai,NA,NA,warmup1,NA
664,NA,swordfish,NA,NA,NA,15,warmup/goldfish.png,swordfish,This is a,No problems.,2,fish,sarah,NA,goldfish,NA,yes,Please label the pictures below.,NA,NA,20,NA,NA,NA,warmup/swordfish.jpg,fish,some_college,NA,NA,English,female,NA,fish,NA,3,1571851435290,1,This is a,1,These are both,goldfish,NA,NA,warmup1,NA
664,What do you think your friend meant?,NA,It is small relative to other,images/fish-parade-goldfish.png,images/goldfish.png,15,NA,NA,NA,No problems.,2,fish,sarah,NA,NA,1,yes,"Your friend runs far ahead of you, and you see him in the distance:",predicative,NA,20,fish,NA,0,NA,NA,some_college,small,NA,English,female,NA,NA,You and your friend see the following:,1,1571851435290,NA,NA,1,NA,NA,NA,congr,custom_main_text1,Your friend says: <br/><b>That fish is small.</b>
664,What do you think your friend meant?,NA,It is big relative to other,images/bird-parade-basic.png,images/eagle.png,15,NA,NA,NA,No problems.,2,birds,sarah,NA,NA,0,yes,"Your friend runs far ahead of you, and you see him in the distance:",predicative,NA,20,birds,NA,0,NA,NA,some_college,big,NA,English,female,NA,NA,You and your friend see the following:,2,1571851435290,NA,NA,1,NA,NA,NA,basic,custom_main_text1,Your friend says: <br/><b>That bird is big.</b>
664,What do you think your friend meant?,NA,It is big relative to other,images/tree-parade-basic.png,images/redwood.png,15,NA,NA,NA,No problems.,2,trees,sarah,NA,NA,0,yes,"Your friend runs far ahead of you, and you see him in the distance:",predicative,NA,20,trees,NA,0,NA,NA,some_college,big,NA,English,female,NA,NA,You and your friend see the following:,3,1571851435290,NA,NA,1,NA,NA,NA,basic,custom_main_text1,Your friend says: <br/><b>That tree is big.</b>
664,NA,chihuahua,NA,NA,NA,15,warmup/doberman.png,chihuahua,This is a,No problems.,2,dogs,sarah,NA,doberman,NA,yes,Please label the pictures below.,NA,NA,20,NA,NA,NA,warmup/chihuahua.jpg,dogs,some_college,NA,NA,English,female,NA,dogs,NA,1,1571851435290,1,This is a,1,These are both,doberman,NA,NA,warmup2,NA
664,NA,dandelion,NA,NA,NA,15,warmup/sunflower.png,dandelion,This is a,No problems.,2,flowers,sarah,NA,sunflower,NA,yes,Please label the pictures below.,NA,NA,20,NA,NA,NA,warmup/dandelion.jpg,flowers,some_college,NA,NA,English,female,NA,flowers,NA,2,1571851435290,1,This is a,1,These are both,sunflower,NA,NA,warmup2,NA
