submission_id,question,response1,sentence_left,context_picture,experiment_id,picture2,correct1,question1,problems,enjoyment,item,botresponse,correct2,pic_spec,understand,text,age,response,comments,ref_spec,picture1,response3,education,target_size,languages,sex,RT,correct3,context,trial_number,startTime,attempts,question3,fairprice,question2,response2,trial_name,condition
492,<i>What do you think Speaker A meant? </i>,NA,The Empire State Building is tall relative to other,NA,12,NA,NA,NA,None,2,NA,margaret,NA,NA,yes,NA,35,buildings.,Interesting study!,NA,NA,NA,graduated_high_school,NA,English,male,NA,NA,In the main trials you will be asked to rephrase something a person said. The utterance will contain a word that is <i>relative</i> and your task is to figure out what it is relative to. <br /> <br /> For example: <br /><br />,1,1567793487357,1,NA,1.1,NA,NA,comp_class_warmup,NA
492,<i>What do you think Speaker A meant? </i>,NA,The Empire State Building is tall relative to other,NA,12,NA,NA,NA,None,2,NA,margaret,NA,NA,yes,NA,35,buildings,Interesting study!,NA,NA,NA,graduated_high_school,NA,English,male,NA,NA,In the main trials you will be asked to rephrase something a person said. The utterance will contain a word that is <i>relative</i> and your task is to figure out what it is relative to. <br /> <br /> For example: <br /><br />,1,1567793487357,2,NA,1.1,NA,NA,comp_class_warmup,NA
492,NA,dog,NA,NA,12,warmup/great-dane.jpg,pug,This is a,None,2,dogs,margaret,great dane,NA,yes,Please label the pictures below.,35,NA,Interesting study!,NA,warmup/pug.jpg,dogs,graduated_high_school,NA,English,male,NA,dogs,NA,1,1567793487357,1,This is a,1.1,These are both,dog,warmup1,NA
492,NA,pug,NA,NA,12,warmup/great-dane.jpg,pug,This is a,None,2,dogs,margaret,great dane,NA,yes,Please label the pictures below.,35,NA,Interesting study!,NA,warmup/pug.jpg,dogs,graduated_high_school,NA,English,male,NA,dogs,NA,1,1567793487357,2,This is a,1.1,These are both,great dane,warmup1,NA
492,NA,humming bird,NA,NA,12,warmup/eagle.jpg,hummingbird,This is a,None,2,birds,margaret,eagle,NA,yes,Please label the pictures below.,35,NA,Interesting study!,NA,warmup/colibri.jpg,birds,graduated_high_school,NA,English,male,NA,birds,NA,2,1567793487357,1,This is an,1.1,These are both,eagle,warmup1,NA
492,NA,hummingbird,NA,NA,12,warmup/eagle.jpg,hummingbird,This is a,None,2,birds,margaret,eagle,NA,yes,Please label the pictures below.,35,NA,Interesting study!,NA,warmup/colibri.jpg,birds,graduated_high_school,NA,English,male,NA,birds,NA,2,1567793487357,2,This is an,1.1,These are both,eagle,warmup1,NA
492,NA,chihuihui,NA,NA,12,warmup/doberman.png,chihuahua,This is a,None,2,dogs,margaret,doberman,NA,yes,Please label the pictures below.,35,NA,Interesting study!,NA,warmup/chihuahua.jpg,dogs,graduated_high_school,NA,English,male,NA,dogs,NA,3,1567793487357,1,This is a,1.1,These are both,doberman pincher,warmup1,NA
492,NA,chihuahua,NA,NA,12,warmup/doberman.png,chihuahua,This is a,None,2,dogs,margaret,doberman,NA,yes,Please label the pictures below.,35,NA,Interesting study!,NA,warmup/chihuahua.jpg,dogs,graduated_high_school,NA,English,male,NA,dogs,NA,3,1567793487357,2,This is a,1.1,These are both,doberman,warmup1,NA
492,What do you think your friend meant?,NA,It is small relative to other,images/dog-parade-great-dane.png,12,NA,NA,NA,None,2,dogs2,margaret,NA,2,yes,"You and your friend see another member of the group <br />(not pictured), and your friend says: <br/><b>That great dane is small.</b>",35,great danes,Interesting study!,0,NA,NA,graduated_high_school,small,English,male,NA,NA,You and your friend see the following:,1,1567793487357,NA,NA,1.1,NA,NA,custom_main_text1,predicative
492,What do you think your friend meant?,NA,It is small relative to other,images/dog-parade-chihuahua.png,12,NA,NA,NA,None,2,dogs1,margaret,NA,1,yes,"You and your friend see another member of the group <br />(not pictured), and your friend says: <br/><b>That one is small.</b>",35,small dogs,Interesting study!,1,NA,NA,graduated_high_school,small,English,male,NA,NA,You and your friend see the following:,2,1567793487357,NA,NA,1.1,NA,NA,custom_main_text1,predicative
492,What do you think your friend meant?,NA,It is small relative to other,images/bird-parade-hummingbird.png,12,NA,NA,NA,None,2,birds,margaret,NA,1,yes,"You and your friend see another member of the group <br />(not pictured), and your friend says: <br/><b>That one is small.</b>",35,hummingbirds,Interesting study!,1,NA,NA,graduated_high_school,small,English,male,NA,NA,You and your friend see the following:,3,1567793487357,NA,NA,1.1,NA,NA,custom_main_text1,predicative
492,NA,dandylion,NA,NA,12,warmup/sunflower.png,dandelion,This is a,None,2,flowers,margaret,sunflower,NA,yes,Please label the pictures below.,35,NA,Interesting study!,NA,warmup/dandelion.jpg,flowers,graduated_high_school,NA,English,male,NA,flowers,NA,1,1567793487357,1,This is a,1.1,These are both,sunflower,warmup2,NA
492,NA,dandelion,NA,NA,12,warmup/sunflower.png,dandelion,This is a,None,2,flowers,margaret,sunflower,NA,yes,Please label the pictures below.,35,NA,Interesting study!,NA,warmup/dandelion.jpg,flowers,graduated_high_school,NA,English,male,NA,flowers,NA,1,1567793487357,2,This is a,1.1,These are both,sunflower,warmup2,NA
492,NA,sequoia,NA,NA,12,warmup/bonsai.jpg,redwood or sequoia (choose one),This is a,None,2,trees,margaret,bonsai,NA,yes,Please label the pictures below.,35,NA,Interesting study!,NA,warmup/sequoia.png,trees,graduated_high_school,NA,English,male,NA,trees,NA,2,1567793487357,1,This is a,1.1,These are both,bonsai,warmup2,NA
492,NA,swordfish,NA,NA,12,warmup/goldfish.png,swordfish,This is a,None,2,fish,margaret,goldfish,NA,yes,Please label the pictures below.,35,NA,Interesting study!,NA,warmup/swordfish.jpg,fish,graduated_high_school,NA,English,male,NA,fish,NA,3,1567793487357,1,This is a,1.1,These are both,goldfish,warmup2,NA
492,What do you think your friend meant?,NA,It is big relative to other,images/tree-parade-basic.png,12,NA,NA,NA,None,2,trees,margaret,NA,0,yes,"You and your friend see another member of the group <br />(not pictured), and your friend says: <br/><b>That one is big.</b>",35,trees,Interesting study!,1,NA,NA,graduated_high_school,big,English,male,NA,NA,You and your friend see the following:,1,1567793487357,NA,NA,1.1,NA,NA,custom_main_text2,predicative
492,What do you think your friend meant?,NA,It is small relative to other,images/flower-parade-basic.png,12,NA,NA,NA,None,2,flowers,margaret,NA,0,yes,"You and your friend see another member of the group <br />(not pictured), and your friend says: <br/><b>That dandelion is small.</b>",35,danelions,Interesting study!,0,NA,NA,graduated_high_school,small,English,male,NA,NA,You and your friend see the following:,2,1567793487357,NA,NA,1.1,NA,NA,custom_main_text2,predicative
492,What do you think your friend meant?,NA,It is big relative to other,images/fish-parade-basic.png,12,NA,NA,NA,None,2,fish,margaret,NA,0,yes,"You and your friend see another member of the group <br />(not pictured), and your friend says: <br/><b>That swordfish is big.</b>",35,swordfish,Interesting study!,0,NA,NA,graduated_high_school,big,English,male,NA,NA,You and your friend see the following:,3,1567793487357,NA,NA,1.1,NA,NA,custom_main_text2,predicative
490,<i>What do you think Speaker A meant? </i>,NA,The Empire State Building is tall relative to other,NA,12,NA,NA,NA,Fun study,2,NA,Mary,NA,NA,NA,NA,NA,buildings,I enjoyed the study,NA,NA,NA,NA,NA,English,female,NA,NA,In the main trials you will be asked to rephrase something a person said. The utterance will contain a word that is <i>relative</i> and your task is to figure out what it is relative to. <br /> <br /> For example: <br /><br />,1,1567792265315,1,NA,1.5,NA,NA,comp_class_warmup,NA
490,NA,tree,NA,NA,12,warmup/bonsai.jpg,redwood or sequoia (choose one),This is a,Fun study,2,trees,Mary,bonsai,NA,NA,Please label the pictures below.,NA,NA,I enjoyed the study,NA,warmup/sequoia.png,trees,NA,NA,English,female,NA,trees,NA,1,1567792265315,1,This is a,1.5,These are both,tree,warmup1,NA
490,NA,tree,NA,NA,12,warmup/bonsai.jpg,redwood or sequoia (choose one),This is a,Fun study,2,trees,Mary,bonsai,NA,NA,Please label the pictures below.,NA,NA,I enjoyed the study,NA,warmup/sequoia.png,trees,NA,NA,English,female,NA,trees,NA,1,1567792265315,2,This is a,1.5,These are both,tree,warmup1,NA
490,NA,tree,NA,NA,12,warmup/bonsai.jpg,redwood or sequoia (choose one),This is a,Fun study,2,trees,Mary,bonsai,NA,NA,Please label the pictures below.,NA,NA,I enjoyed the study,NA,warmup/sequoia.png,trees,NA,NA,English,female,NA,trees,NA,1,1567792265315,3,This is a,1.5,These are both,tree,warmup1,NA
490,NA,tree,NA,NA,12,warmup/bonsai.jpg,redwood or sequoia (choose one),This is a,Fun study,2,trees,Mary,bonsai,NA,NA,Please label the pictures below.,NA,NA,I enjoyed the study,NA,warmup/sequoia.png,trees,NA,NA,English,female,NA,trees,NA,1,1567792265315,4,This is a,1.5,These are both,tree,warmup1,NA
490,NA,redwood,NA,NA,12,warmup/bonsai.jpg,redwood or sequoia (choose one),This is a,Fun study,2,trees,Mary,bonsai,NA,NA,Please label the pictures below.,NA,NA,I enjoyed the study,NA,warmup/sequoia.png,trees,NA,NA,English,female,NA,trees,NA,1,1567792265315,5,This is a,1.5,These are both,bonsai,warmup1,NA
490,NA,starfish,NA,NA,12,warmup/goldfish.png,swordfish,This is a,Fun study,2,fish,Mary,goldfish,NA,NA,Please label the pictures below.,NA,NA,I enjoyed the study,NA,warmup/swordfish.jpg,fish,NA,NA,English,female,NA,fish,NA,2,1567792265315,1,This is a,1.5,These are both,shark,warmup1,NA
490,NA,swordfish,NA,NA,12,warmup/goldfish.png,swordfish,This is a,Fun study,2,fish,Mary,goldfish,NA,NA,Please label the pictures below.,NA,NA,I enjoyed the study,NA,warmup/swordfish.jpg,fish,NA,NA,English,female,NA,fish,NA,2,1567792265315,2,This is a,1.5,These are both,goldfish,warmup1,NA
490,NA,woodpecker,NA,NA,12,warmup/eagle.jpg,hummingbird,This is a,Fun study,2,birds,Mary,eagle,NA,NA,Please label the pictures below.,NA,NA,I enjoyed the study,NA,warmup/colibri.jpg,birds,NA,NA,English,female,NA,birds,NA,3,1567792265315,1,This is an,1.5,These are both,eagle,warmup1,NA
490,NA,hummingbird,NA,NA,12,warmup/eagle.jpg,hummingbird,This is a,Fun study,2,birds,Mary,eagle,NA,NA,Please label the pictures below.,NA,NA,I enjoyed the study,NA,warmup/colibri.jpg,birds,NA,NA,English,female,NA,birds,NA,3,1567792265315,2,This is an,1.5,These are both,eagle,warmup1,NA
490,What do you think your friend meant?,NA,It is big relative to other,images/tree-parade-bonsai.png,12,NA,NA,NA,Fun study,2,trees,Mary,NA,2,NA,"You and your friend see another member of the group <br />(not pictured), and your friend says: <br/><b>That one is big.</b>",NA,trees,I enjoyed the study,1,NA,NA,NA,big,English,female,NA,NA,You and your friend see the following:,1,1567792265315,NA,NA,1.5,NA,NA,custom_main_text1,predicative
490,What do you think your friend meant?,NA,It is big relative to other,images/bird-parade-eagle.png,12,NA,NA,NA,Fun study,2,birds,Mary,NA,1,NA,"You and your friend see another member of the group <br />(not pictured), and your friend says: <br/><b>That eagle is big.</b>",NA,eagles,I enjoyed the study,0,NA,NA,NA,big,English,female,NA,NA,You and your friend see the following:,2,1567792265315,NA,NA,1.5,NA,NA,custom_main_text1,predicative
490,What do you think your friend meant?,NA,It is big relative to other,images/fish-parade-basic.png,12,NA,NA,NA,Fun study,2,fish,Mary,NA,0,NA,"You and your friend see another member of the group <br />(not pictured), and your friend says: <br/><b>That one is big.</b>",NA,fish,I enjoyed the study,1,NA,NA,NA,big,English,female,NA,NA,You and your friend see the following:,3,1567792265315,NA,NA,1.5,NA,NA,custom_main_text1,predicative
490,NA,bulldog,NA,NA,12,warmup/great-dane.jpg,pug,This is a,Fun study,2,dogs,Mary,great dane,NA,NA,Please label the pictures below.,NA,NA,I enjoyed the study,NA,warmup/pug.jpg,dogs,NA,NA,English,female,NA,dogs,NA,1,1567792265315,1,This is a,1.5,These are both,german,warmup2,NA
490,NA,pug,NA,NA,12,warmup/great-dane.jpg,pug,This is a,Fun study,2,dogs,Mary,great dane,NA,NA,Please label the pictures below.,NA,NA,I enjoyed the study,NA,warmup/pug.jpg,dogs,NA,NA,English,female,NA,dogs,NA,1,1567792265315,2,This is a,1.5,These are both,great dane,warmup2,NA
490,NA,wolf,NA,NA,12,warmup/doberman.png,chihuahua,This is a,Fun study,2,dogs,Mary,doberman,NA,NA,Please label the pictures below.,NA,NA,I enjoyed the study,NA,warmup/chihuahua.jpg,dogs,NA,NA,English,female,NA,dogs,NA,2,1567792265315,1,This is a,1.5,These are both,german,warmup2,NA
490,NA,chihuahua,NA,NA,12,warmup/doberman.png,chihuahua,This is a,Fun study,2,dogs,Mary,doberman,NA,NA,Please label the pictures below.,NA,NA,I enjoyed the study,NA,warmup/chihuahua.jpg,dogs,NA,NA,English,female,NA,dogs,NA,2,1567792265315,2,This is a,1.5,These are both,doberman,warmup2,NA
490,NA,basil,NA,NA,12,warmup/sunflower.png,dandelion,This is a,Fun study,2,flowers,Mary,sunflower,NA,NA,Please label the pictures below.,NA,NA,I enjoyed the study,NA,warmup/dandelion.jpg,flowers,NA,NA,English,female,NA,flowers,NA,3,1567792265315,1,This is a,1.5,These are both,sunflower,warmup2,NA
490,NA,dandelion,NA,NA,12,warmup/sunflower.png,dandelion,This is a,Fun study,2,flowers,Mary,sunflower,NA,NA,Please label the pictures below.,NA,NA,I enjoyed the study,NA,warmup/dandelion.jpg,flowers,NA,NA,English,female,NA,flowers,NA,3,1567792265315,2,This is a,1.5,These are both,sunflower,warmup2,NA
490,What do you think your friend meant?,NA,It is small relative to other,images/flower-parade-basic.png,12,NA,NA,NA,Fun study,2,flowers,Mary,NA,0,NA,"You and your friend see another member of the group <br />(not pictured), and your friend says: <br/><b>That one is small.</b>",NA,flowers,I enjoyed the study,1,NA,NA,NA,small,English,female,NA,NA,You and your friend see the following:,1,1567792265315,NA,NA,1.5,NA,NA,custom_main_text2,predicative
490,What do you think your friend meant?,NA,It is small relative to other,images/dog-parade-basic.png,12,NA,NA,NA,Fun study,2,dogs1,Mary,NA,0,NA,"You and your friend see another member of the group <br />(not pictured), and your friend says: <br/><b>That chihuahua is small.</b>",NA,dogs,I enjoyed the study,0,NA,NA,NA,small,English,female,NA,NA,You and your friend see the following:,2,1567792265315,NA,NA,1.5,NA,NA,custom_main_text2,predicative
490,What do you think your friend meant?,NA,It is small relative to other,images/dog-parade-great-dane.png,12,NA,NA,NA,Fun study,2,dogs2,Mary,NA,2,NA,"You and your friend see another member of the group <br />(not pictured), and your friend says: <br/><b>That great dane is small.</b>",NA,dogs,I enjoyed the study,0,NA,NA,NA,small,English,female,NA,NA,You and your friend see the following:,3,1567792265315,NA,NA,1.5,NA,NA,custom_main_text2,predicative
488,<i>What do you think Speaker A meant? </i>,NA,The Empire State Building is tall relative to other,NA,12,NA,NA,NA,no,1,NA,jessica,NA,NA,yes,NA,26,buildings,NA,NA,NA,NA,some_college,NA,English,male,NA,NA,In the main trials you will be asked to rephrase something a person said. The utterance will contain a word that is <i>relative</i> and your task is to figure out what it is relative to. <br /> <br /> For example: <br /><br />,1,1567792277703,1,NA,1,NA,NA,comp_class_warmup,NA
488,NA,swordfish,NA,NA,12,warmup/goldfish.png,swordfish,This is a,no,1,fish,jessica,goldfish,NA,yes,Please label the pictures below.,26,NA,NA,NA,warmup/swordfish.jpg,fish,some_college,NA,English,male,NA,fish,NA,1,1567792277703,1,This is a,1,These are both,goldfish,warmup1,NA
488,NA,dandelion,NA,NA,12,warmup/sunflower.png,dandelion,This is a,no,1,flowers,jessica,sunflower,NA,yes,Please label the pictures below.,26,NA,NA,NA,warmup/dandelion.jpg,flowers,some_college,NA,English,male,NA,flowers,NA,2,1567792277703,1,This is a,1,These are both,sunflower,warmup1,NA
488,NA,hummngbird,NA,NA,12,warmup/eagle.jpg,hummingbird,This is a,no,1,birds,jessica,eagle,NA,yes,Please label the pictures below.,26,NA,NA,NA,warmup/colibri.jpg,birds,some_college,NA,English,male,NA,birds,NA,3,1567792277703,1,This is an,1,These are both,eagle,warmup1,NA
488,NA,hummingbird,NA,NA,12,warmup/eagle.jpg,hummingbird,This is a,no,1,birds,jessica,eagle,NA,yes,Please label the pictures below.,26,NA,NA,NA,warmup/colibri.jpg,birds,some_college,NA,English,male,NA,birds,NA,3,1567792277703,2,This is an,1,These are both,eagle,warmup1,NA
488,What do you think your friend meant?,NA,It is small relative to other,images/flower-parade-dandelion.png,12,NA,NA,NA,no,1,flowers,jessica,NA,1,yes,"You and your friend see another member of the group <br />(not pictured), and your friend says: <br/><b>That one is small.</b>",26,dandelions,NA,1,NA,NA,some_college,small,English,male,NA,NA,You and your friend see the following:,1,1567792277703,NA,NA,1,NA,NA,custom_main_text1,predicative
488,What do you think your friend meant?,NA,It is small relative to other,images/bird-parade-eagle.png,12,NA,NA,NA,no,1,birds,jessica,NA,2,yes,"You and your friend see another member of the group <br />(not pictured), and your friend says: <br/><b>That eagle is small.</b>",26,eagles,NA,0,NA,NA,some_college,small,English,male,NA,NA,You and your friend see the following:,2,1567792277703,NA,NA,1,NA,NA,custom_main_text1,predicative
488,What do you think your friend meant?,NA,It is big relative to other,images/fish-parade-goldfish.png,12,NA,NA,NA,no,1,fish,jessica,NA,2,yes,"You and your friend see another member of the group <br />(not pictured), and your friend says: <br/><b>That goldfish is big.</b>",26,fish,NA,0,NA,NA,some_college,big,English,male,NA,NA,You and your friend see the following:,3,1567792277703,NA,NA,1,NA,NA,custom_main_text1,predicative
488,NA,pug,NA,NA,12,warmup/great-dane.jpg,pug,This is a,no,1,dogs,jessica,great dane,NA,yes,Please label the pictures below.,26,NA,NA,NA,warmup/pug.jpg,dogs,some_college,NA,English,male,NA,dogs,NA,1,1567792277703,1,This is a,1,These are both,great dane,warmup2,NA
488,NA,tree,NA,NA,12,warmup/bonsai.jpg,redwood or sequoia (choose one),This is a,no,1,trees,jessica,bonsai,NA,yes,Please label the pictures below.,26,NA,NA,NA,warmup/sequoia.png,trees,some_college,NA,English,male,NA,trees,NA,2,1567792277703,1,This is a,1,These are both,bonsai,warmup2,NA
488,NA,redwood,NA,NA,12,warmup/bonsai.jpg,redwood or sequoia (choose one),This is a,no,1,trees,jessica,bonsai,NA,yes,Please label the pictures below.,26,NA,NA,NA,warmup/sequoia.png,trees,some_college,NA,English,male,NA,trees,NA,2,1567792277703,2,This is a,1,These are both,bonsai,warmup2,NA
488,NA,chihuaha,NA,NA,12,warmup/doberman.png,chihuahua,This is a,no,1,dogs,jessica,doberman,NA,yes,Please label the pictures below.,26,NA,NA,NA,warmup/chihuahua.jpg,dogs,some_college,NA,English,male,NA,dogs,NA,3,1567792277703,1,This is a,1,These are both,dog,warmup2,NA
488,NA,chihuahua,NA,NA,12,warmup/doberman.png,chihuahua,This is a,no,1,dogs,jessica,doberman,NA,yes,Please label the pictures below.,26,NA,NA,NA,warmup/chihuahua.jpg,dogs,some_college,NA,English,male,NA,dogs,NA,3,1567792277703,2,This is a,1,These are both,doberman,warmup2,NA
488,What do you think your friend meant?,NA,It is big relative to other,images/dog-parade-basic.png,12,NA,NA,NA,no,1,dogs1,jessica,NA,0,yes,"You and your friend see another member of the group <br />(not pictured), and your friend says: <br/><b>That one is big.</b>",26,dogs,NA,1,NA,NA,some_college,big,English,male,NA,NA,You and your friend see the following:,1,1567792277703,NA,NA,1,NA,NA,custom_main_text2,predicative
488,What do you think your friend meant?,NA,It is small relative to other,images/dog-parade-basic2.png,12,NA,NA,NA,no,1,dogs2,jessica,NA,0,yes,"You and your friend see another member of the group <br />(not pictured), and your friend says: <br/><b>That one is small.</b>",26,dogs,NA,1,NA,NA,some_college,small,English,male,NA,NA,You and your friend see the following:,2,1567792277703,NA,NA,1,NA,NA,custom_main_text2,predicative
488,What do you think your friend meant?,NA,It is big relative to other,images/tree-parade-basic.png,12,NA,NA,NA,no,1,trees,jessica,NA,0,yes,"You and your friend see another member of the group <br />(not pictured), and your friend says: <br/><b>That redwood is big.</b>",26,redwoods,NA,0,NA,NA,some_college,big,English,male,NA,NA,You and your friend see the following:,3,1567792277703,NA,NA,1,NA,NA,custom_main_text2,predicative
485,<i>What do you think Speaker A meant? </i>,NA,The Empire State Building is tall relative to other,NA,12,NA,NA,NA,no,1,NA,patricia,NA,NA,yes,NA,36,buildings,NA,NA,NA,NA,graduated_college,NA,English,male,NA,NA,In the main trials you will be asked to rephrase something a person said. The utterance will contain a word that is <i>relative</i> and your task is to figure out what it is relative to. <br /> <br /> For example: <br /><br />,1,1567791306173,1,NA,1,NA,NA,comp_class_warmup,NA
485,NA,dandelion,NA,NA,12,warmup/sunflower.png,dandelion,This is a,no,1,flowers,patricia,sunflower,NA,yes,Please label the pictures below.,36,NA,NA,NA,warmup/dandelion.jpg,plants,graduated_college,NA,English,male,NA,flowers,NA,1,1567791306173,1,This is a,1,These are both,sunflower,warmup1,NA
485,NA,dandelion,NA,NA,12,warmup/sunflower.png,dandelion,This is a,no,1,flowers,patricia,sunflower,NA,yes,Please label the pictures below.,36,NA,NA,NA,warmup/dandelion.jpg,plants,graduated_college,NA,English,male,NA,flowers,NA,1,1567791306173,2,This is a,1,These are both,sunflower,warmup1,NA
485,NA,dandelion,NA,NA,12,warmup/sunflower.png,dandelion,This is a,no,1,flowers,patricia,sunflower,NA,yes,Please label the pictures below.,36,NA,NA,NA,warmup/dandelion.jpg,plants,graduated_college,NA,English,male,NA,flowers,NA,1,1567791306173,3,This is a,1,These are both,sunflower,warmup1,NA
485,NA,dandelion,NA,NA,12,warmup/sunflower.png,dandelion,This is a,no,1,flowers,patricia,sunflower,NA,yes,Please label the pictures below.,36,NA,NA,NA,warmup/dandelion.jpg,plants,graduated_college,NA,English,male,NA,flowers,NA,1,1567791306173,4,This is a,1,These are both,sunflower,warmup1,NA
485,NA,dandelion,NA,NA,12,warmup/sunflower.png,dandelion,This is a,no,1,flowers,patricia,sunflower,NA,yes,Please label the pictures below.,36,NA,NA,NA,warmup/dandelion.jpg,plants,graduated_college,NA,English,male,NA,flowers,NA,1,1567791306173,5,This is a,1,These are both,sunflower,warmup1,NA
485,NA,dandelion,NA,NA,12,warmup/sunflower.png,dandelion,This is a,no,1,flowers,patricia,sunflower,NA,yes,Please label the pictures below.,36,NA,NA,NA,warmup/dandelion.jpg,plants,graduated_college,NA,English,male,NA,flowers,NA,1,1567791306173,6,This is a,1,These are both,sunflower,warmup1,NA
485,NA,dandelion,NA,NA,12,warmup/sunflower.png,dandelion,This is a,no,1,flowers,patricia,sunflower,NA,yes,Please label the pictures below.,36,NA,NA,NA,warmup/dandelion.jpg,plants,graduated_college,NA,English,male,NA,flowers,NA,1,1567791306173,7,This is a,1,These are both,sunflower,warmup1,NA
485,NA,dandelion,NA,NA,12,warmup/sunflower.png,dandelion,This is a,no,1,flowers,patricia,sunflower,NA,yes,Please label the pictures below.,36,NA,NA,NA,warmup/dandelion.jpg,plants,graduated_college,NA,English,male,NA,flowers,NA,1,1567791306173,8,This is a,1,These are both,sunflower,warmup1,NA
485,NA,dandelion,NA,NA,12,warmup/sunflower.png,dandelion,This is a,no,1,flowers,patricia,sunflower,NA,yes,Please label the pictures below.,36,NA,NA,NA,warmup/dandelion.jpg,flowers,graduated_college,NA,English,male,NA,flowers,NA,1,1567791306173,9,This is a,1,These are both,sunflower,warmup1,NA
485,NA,tree,NA,NA,12,warmup/bonsai.jpg,redwood or sequoia (choose one),This is a,no,1,trees,patricia,bonsai,NA,yes,Please label the pictures below.,36,NA,NA,NA,warmup/sequoia.png,trees,graduated_college,NA,English,male,NA,trees,NA,2,1567791306173,1,This is a,1,These are both,bonzai tree,warmup1,NA
485,NA,redwood,NA,NA,12,warmup/bonsai.jpg,redwood or sequoia (choose one),This is a,no,1,trees,patricia,bonsai,NA,yes,Please label the pictures below.,36,NA,NA,NA,warmup/sequoia.png,trees,graduated_college,NA,English,male,NA,trees,NA,2,1567791306173,2,This is a,1,These are both,bonsai,warmup1,NA
485,NA,pug,NA,NA,12,warmup/great-dane.jpg,pug,This is a,no,1,dogs,patricia,great dane,NA,yes,Please label the pictures below.,36,NA,NA,NA,warmup/pug.jpg,dogs,graduated_college,NA,English,male,NA,dogs,NA,3,1567791306173,1,This is a,1,These are both,hound,warmup1,NA
485,NA,pug,NA,NA,12,warmup/great-dane.jpg,pug,This is a,no,1,dogs,patricia,great dane,NA,yes,Please label the pictures below.,36,NA,NA,NA,warmup/pug.jpg,dogs,graduated_college,NA,English,male,NA,dogs,NA,3,1567791306173,2,This is a,1,These are both,great dane,warmup1,NA
485,What do you think your friend meant?,NA,It is small relative to other,images/tree-parade-basic.png,12,NA,NA,NA,no,1,trees,patricia,NA,0,yes,"You and your friend see another member of the group <br />(not pictured), and your friend says: <br/><b>That one is small.</b>",36,trees,NA,1,NA,NA,graduated_college,small,English,male,NA,NA,You and your friend see the following:,1,1567791306173,NA,NA,1,NA,NA,custom_main_text1,predicative
485,What do you think your friend meant?,NA,It is big relative to other,images/dog-parade-basic2.png,12,NA,NA,NA,no,1,dogs2,patricia,NA,0,yes,"You and your friend see another member of the group <br />(not pictured), and your friend says: <br/><b>That great dane is big.</b>",36,dogs,NA,0,NA,NA,graduated_college,big,English,male,NA,NA,You and your friend see the following:,2,1567791306173,NA,NA,1,NA,NA,custom_main_text1,predicative
485,What do you think your friend meant?,NA,It is big relative to other,images/flower-parade-sunflower.png,12,NA,NA,NA,no,1,flowers,patricia,NA,1,yes,"You and your friend see another member of the group <br />(not pictured), and your friend says: <br/><b>That sunflower is big.</b>",36,flowers,NA,0,NA,NA,graduated_college,big,English,male,NA,NA,You and your friend see the following:,3,1567791306173,NA,NA,1,NA,NA,custom_main_text1,predicative
485,NA,swordfish,NA,NA,12,warmup/goldfish.png,swordfish,This is a,no,1,fish,patricia,goldfish,NA,yes,Please label the pictures below.,36,NA,NA,NA,warmup/swordfish.jpg,fish,graduated_college,NA,English,male,NA,fish,NA,1,1567791306173,1,This is a,1,These are both,goldfish,warmup2,NA
485,NA,chiauwawa,NA,NA,12,warmup/doberman.png,chihuahua,This is a,no,1,dogs,patricia,doberman,NA,yes,Please label the pictures below.,36,NA,NA,NA,warmup/chihuahua.jpg,dogs,graduated_college,NA,English,male,NA,dogs,NA,2,1567791306173,1,This is a,1,These are both,great dane,warmup2,NA
485,NA,chihuahua,NA,NA,12,warmup/doberman.png,chihuahua,This is a,no,1,dogs,patricia,doberman,NA,yes,Please label the pictures below.,36,NA,NA,NA,warmup/chihuahua.jpg,dogs,graduated_college,NA,English,male,NA,dogs,NA,2,1567791306173,2,This is a,1,These are both,doberman,warmup2,NA
485,NA,humming bird,NA,NA,12,warmup/eagle.jpg,hummingbird,This is a,no,1,birds,patricia,eagle,NA,yes,Please label the pictures below.,36,NA,NA,NA,warmup/colibri.jpg,birds,graduated_college,NA,English,male,NA,birds,NA,3,1567791306173,1,This is an,1,These are both,bald eagle,warmup2,NA
485,NA,hummingbird,NA,NA,12,warmup/eagle.jpg,hummingbird,This is a,no,1,birds,patricia,eagle,NA,yes,Please label the pictures below.,36,NA,NA,NA,warmup/colibri.jpg,birds,graduated_college,NA,English,male,NA,birds,NA,3,1567791306173,2,This is an,1,These are both,eagle,warmup2,NA
485,What do you think your friend meant?,NA,It is small relative to other,images/fish-parade-basic.png,12,NA,NA,NA,no,1,fish,patricia,NA,0,yes,"You and your friend see another member of the group <br />(not pictured), and your friend says: <br/><b>That one is small.</b>",36,fish,NA,1,NA,NA,graduated_college,small,English,male,NA,NA,You and your friend see the following:,1,1567791306173,NA,NA,1,NA,NA,custom_main_text2,predicative
485,What do you think your friend meant?,NA,It is small relative to other,images/dog-parade-doberman.png,12,NA,NA,NA,no,1,dogs1,patricia,NA,2,yes,"You and your friend see another member of the group <br />(not pictured), and your friend says: <br/><b>That doberman is small.</b>",36,doberman,NA,0,NA,NA,graduated_college,small,English,male,NA,NA,You and your friend see the following:,2,1567791306173,NA,NA,1,NA,NA,custom_main_text2,predicative
485,What do you think your friend meant?,NA,It is small relative to other,images/bird-parade-hummingbird.png,12,NA,NA,NA,no,1,birds,patricia,NA,1,yes,"You and your friend see another member of the group <br />(not pictured), and your friend says: <br/><b>That one is small.</b>",36,hummingbirds,NA,1,NA,NA,graduated_college,small,English,male,NA,NA,You and your friend see the following:,3,1567791306173,NA,NA,1,NA,NA,custom_main_text2,predicative
483,<i>What do you think Speaker A meant? </i>,NA,The Empire State Building is tall relative to other,NA,12,NA,NA,NA,no,1,NA,barbara,NA,NA,yes,NA,37,buildings,NA,NA,NA,NA,graduated_college,NA,English,male,NA,NA,In the main trials you will be asked to rephrase something a person said. The utterance will contain a word that is <i>relative</i> and your task is to figure out what it is relative to. <br /> <br /> For example: <br /><br />,1,1567791909766,1,NA,1,NA,NA,comp_class_warmup,NA
483,NA,chihuahua,NA,NA,12,warmup/doberman.png,chihuahua,This is a,no,1,dogs,barbara,doberman,NA,yes,Please label the pictures below.,37,NA,NA,NA,warmup/chihuahua.jpg,dogs,graduated_college,NA,English,male,NA,dogs,NA,1,1567791909766,1,This is a,1,These are both,great dane,warmup1,NA
483,NA,chihuahua,NA,NA,12,warmup/doberman.png,chihuahua,This is a,no,1,dogs,barbara,doberman,NA,yes,Please label the pictures below.,37,NA,NA,NA,warmup/chihuahua.jpg,dogs,graduated_college,NA,English,male,NA,dogs,NA,1,1567791909766,2,This is a,1,These are both,doberman,warmup1,NA
483,NA,hummingbird,NA,NA,12,warmup/eagle.jpg,hummingbird,This is a,no,1,birds,barbara,eagle,NA,yes,Please label the pictures below.,37,NA,NA,NA,warmup/colibri.jpg,birds,graduated_college,NA,English,male,NA,birds,NA,2,1567791909766,1,This is an,1,These are both,eagle,warmup1,NA
483,NA,redwood,NA,NA,12,warmup/bonsai.jpg,redwood or sequoia (choose one),This is a,no,1,trees,barbara,bonsai,NA,yes,Please label the pictures below.,37,NA,NA,NA,warmup/sequoia.png,trees,graduated_college,NA,English,male,NA,trees,NA,3,1567791909766,1,This is a,1,These are both,bonsai,warmup1,NA
483,What do you think your friend meant?,NA,It is big relative to other,images/tree-parade-bonsai.png,12,NA,NA,NA,no,1,trees,barbara,NA,2,yes,"You and your friend see another member of the group <br />(not pictured), and your friend says: <br/><b>That one is big.</b>",37,bonsai,NA,1,NA,NA,graduated_college,big,English,male,NA,NA,You and your friend see the following:,1,1567791909766,NA,NA,1,NA,NA,custom_main_text1,predicative
483,What do you think your friend meant?,NA,It is big relative to other,images/dog-parade-doberman.png,12,NA,NA,NA,no,1,dogs1,barbara,NA,1,yes,"You and your friend see another member of the group <br />(not pictured), and your friend says: <br/><b>That one is big.</b>",37,doberman,NA,1,NA,NA,graduated_college,big,English,male,NA,NA,You and your friend see the following:,2,1567791909766,NA,NA,1,NA,NA,custom_main_text1,predicative
483,What do you think your friend meant?,NA,It is big relative to other,images/bird-parade-hummingbird.png,12,NA,NA,NA,no,1,birds,barbara,NA,2,yes,"You and your friend see another member of the group <br />(not pictured), and your friend says: <br/><b>That hummingbird is big.</b>",37,hummingbirds,NA,0,NA,NA,graduated_college,big,English,male,NA,NA,You and your friend see the following:,3,1567791909766,NA,NA,1,NA,NA,custom_main_text1,predicative
483,NA,dandelion,NA,NA,12,warmup/sunflower.png,dandelion,This is a,no,1,flowers,barbara,sunflower,NA,yes,Please label the pictures below.,37,NA,NA,NA,warmup/dandelion.jpg,flowers,graduated_college,NA,English,male,NA,flowers,NA,1,1567791909766,1,This is a,1,These are both,sunflower,warmup2,NA
483,NA,bulldog,NA,NA,12,warmup/great-dane.jpg,pug,This is a,no,1,dogs,barbara,great dane,NA,yes,Please label the pictures below.,37,NA,NA,NA,warmup/pug.jpg,dogs,graduated_college,NA,English,male,NA,dogs,NA,2,1567791909766,1,This is a,1,These are both,great dane,warmup2,NA
483,NA,pug,NA,NA,12,warmup/great-dane.jpg,pug,This is a,no,1,dogs,barbara,great dane,NA,yes,Please label the pictures below.,37,NA,NA,NA,warmup/pug.jpg,dogs,graduated_college,NA,English,male,NA,dogs,NA,2,1567791909766,2,This is a,1,These are both,great dane,warmup2,NA
483,NA,swordfish,NA,NA,12,warmup/goldfish.png,swordfish,This is a,no,1,fish,barbara,goldfish,NA,yes,Please label the pictures below.,37,NA,NA,NA,warmup/swordfish.jpg,fish,graduated_college,NA,English,male,NA,fish,NA,3,1567791909766,1,This is a,1,These are both,goldfish,warmup2,NA
483,What do you think your friend meant?,NA,It is big relative to other,images/dog-parade-basic2.png,12,NA,NA,NA,no,1,dogs2,barbara,NA,0,yes,"You and your friend see another member of the group <br />(not pictured), and your friend says: <br/><b>That great dane is big.</b>",37,dogs,NA,0,NA,NA,graduated_college,big,English,male,NA,NA,You and your friend see the following:,1,1567791909766,NA,NA,1,NA,NA,custom_main_text2,predicative
483,What do you think your friend meant?,NA,It is big relative to other,images/fish-parade-basic.png,12,NA,NA,NA,no,1,fish,barbara,NA,0,yes,"You and your friend see another member of the group <br />(not pictured), and your friend says: <br/><b>That swordfish is big.</b>",37,swordfish,NA,0,NA,NA,graduated_college,big,English,male,NA,NA,You and your friend see the following:,2,1567791909766,NA,NA,1,NA,NA,custom_main_text2,predicative
483,What do you think your friend meant?,NA,It is small relative to other,images/flower-parade-basic.png,12,NA,NA,NA,no,1,flowers,barbara,NA,0,yes,"You and your friend see another member of the group <br />(not pictured), and your friend says: <br/><b>That one is small.</b>",37,flowers,NA,1,NA,NA,graduated_college,small,English,male,NA,NA,You and your friend see the following:,3,1567791909766,NA,NA,1,NA,NA,custom_main_text2,predicative
482,<i>What do you think Speaker A meant? </i>,NA,The Empire State Building is tall relative to other,NA,12,NA,NA,NA,No,1,NA,Mary,NA,NA,yes,NA,38,buildings,None,NA,NA,NA,some_college,NA,English,male,NA,NA,In the main trials you will be asked to rephrase something a person said. The utterance will contain a word that is <i>relative</i> and your task is to figure out what it is relative to. <br /> <br /> For example: <br /><br />,1,1567791311211,1,NA,2,NA,NA,comp_class_warmup,NA
482,NA,hummingbird,NA,NA,12,warmup/eagle.jpg,hummingbird,This is a,No,1,birds,Mary,eagle,NA,yes,Please label the pictures below.,38,NA,None,NA,warmup/colibri.jpg,birds,some_college,NA,English,male,NA,birds,NA,1,1567791311211,1,This is an,2,These are both,eagle,warmup1,NA
482,NA,swordfish,NA,NA,12,warmup/goldfish.png,swordfish,This is a,No,1,fish,Mary,goldfish,NA,yes,Please label the pictures below.,38,NA,None,NA,warmup/swordfish.jpg,fish,some_college,NA,English,male,NA,fish,NA,2,1567791311211,1,This is a,2,These are both,goldfish,warmup1,NA
482,NA,redwood,NA,NA,12,warmup/bonsai.jpg,redwood or sequoia (choose one),This is a,No,1,trees,Mary,bonsai,NA,yes,Please label the pictures below.,38,NA,None,NA,warmup/sequoia.png,trees,some_college,NA,English,male,NA,trees,NA,3,1567791311211,1,This is a,2,These are both,bonsai,warmup1,NA
482,What do you think your friend meant?,NA,It is big relative to other,images/bird-parade-hummingbird.png,12,NA,NA,NA,No,1,birds,Mary,NA,2,yes,"You and your friend see another member of the group <br />(not pictured), and your friend says: <br/><b>That hummingbird is big.</b>",38,hummingbirds,None,0,NA,NA,some_college,big,English,male,NA,NA,You and your friend see the following:,1,1567791311211,NA,NA,2,NA,NA,custom_main_text1,predicative
482,What do you think your friend meant?,NA,It is big relative to other,images/tree-parade-basic.png,12,NA,NA,NA,No,1,trees,Mary,NA,0,yes,"You and your friend see another member of the group <br />(not pictured), and your friend says: <br/><b>That one is big.</b>",38,trees,None,1,NA,NA,some_college,big,English,male,NA,NA,You and your friend see the following:,2,1567791311211,NA,NA,2,NA,NA,custom_main_text1,predicative
482,What do you think your friend meant?,NA,It is big relative to other,images/fish-parade-swordfish.png,12,NA,NA,NA,No,1,fish,Mary,NA,1,yes,"You and your friend see another member of the group <br />(not pictured), and your friend says: <br/><b>That one is big.</b>",38,swordfish,None,1,NA,NA,some_college,big,English,male,NA,NA,You and your friend see the following:,3,1567791311211,NA,NA,2,NA,NA,custom_main_text1,predicative
482,NA,dandelion,NA,NA,12,warmup/sunflower.png,dandelion,This is a,No,1,flowers,Mary,sunflower,NA,yes,Please label the pictures below.,38,NA,None,NA,warmup/dandelion.jpg,flowers,some_college,NA,English,male,NA,flowers,NA,1,1567791311211,1,This is a,2,These are both,sunflower,warmup2,NA
482,NA,chihuahua,NA,NA,12,warmup/doberman.png,chihuahua,This is a,No,1,dogs,Mary,doberman,NA,yes,Please label the pictures below.,38,NA,None,NA,warmup/chihuahua.jpg,dogs,some_college,NA,English,male,NA,dogs,NA,2,1567791311211,1,This is a,2,These are both,doberman,warmup2,NA
482,NA,bulldog,NA,NA,12,warmup/great-dane.jpg,pug,This is a,No,1,dogs,Mary,great dane,NA,yes,Please label the pictures below.,38,NA,None,NA,warmup/pug.jpg,dogs,some_college,NA,English,male,NA,dogs,NA,3,1567791311211,1,This is a,2,These are both,weimaraner,warmup2,NA
482,NA,bulldog,NA,NA,12,warmup/great-dane.jpg,pug,This is a,No,1,dogs,Mary,great dane,NA,yes,Please label the pictures below.,38,NA,None,NA,warmup/pug.jpg,dogs,some_college,NA,English,male,NA,dogs,NA,3,1567791311211,2,This is a,2,These are both,lab,warmup2,NA
482,NA,bulldog,NA,NA,12,warmup/great-dane.jpg,pug,This is a,No,1,dogs,Mary,great dane,NA,yes,Please label the pictures below.,38,NA,None,NA,warmup/pug.jpg,dogs,some_college,NA,English,male,NA,dogs,NA,3,1567791311211,3,This is a,2,These are both,lab,warmup2,NA
482,NA,pug,NA,NA,12,warmup/great-dane.jpg,pug,This is a,No,1,dogs,Mary,great dane,NA,yes,Please label the pictures below.,38,NA,None,NA,warmup/pug.jpg,dogs,some_college,NA,English,male,NA,dogs,NA,3,1567791311211,4,This is a,2,These are both,great dane,warmup2,NA
482,What do you think your friend meant?,NA,It is small relative to other,images/flower-parade-basic.png,12,NA,NA,NA,No,1,flowers,Mary,NA,0,yes,"You and your friend see another member of the group <br />(not pictured), and your friend says: <br/><b>That one is small.</b>",38,flowers,None,1,NA,NA,some_college,small,English,male,NA,NA,You and your friend see the following:,1,1567791311211,NA,NA,2,NA,NA,custom_main_text2,predicative
482,What do you think your friend meant?,NA,It is big relative to other,images/dog-parade-basic.png,12,NA,NA,NA,No,1,dogs1,Mary,NA,0,yes,"You and your friend see another member of the group <br />(not pictured), and your friend says: <br/><b>That doberman is big.</b>",38,dogs,None,0,NA,NA,some_college,big,English,male,NA,NA,You and your friend see the following:,2,1567791311211,NA,NA,2,NA,NA,custom_main_text2,predicative
482,What do you think your friend meant?,NA,It is small relative to other,images/dog-parade-pug.png,12,NA,NA,NA,No,1,dogs2,Mary,NA,1,yes,"You and your friend see another member of the group <br />(not pictured), and your friend says: <br/><b>That pug is small.</b>",38,pugs,None,0,NA,NA,some_college,small,English,male,NA,NA,You and your friend see the following:,3,1567791311211,NA,NA,2,NA,NA,custom_main_text2,predicative
479,<i>What do you think Speaker A meant? </i>,NA,The Empire State Building is tall relative to other,NA,12,NA,NA,NA,none,1,NA,barbara,NA,NA,yes,NA,32,other buildings,Thank you!,NA,NA,NA,higher_degree,NA,english,female,NA,NA,In the main trials you will be asked to rephrase something a person said. The utterance will contain a word that is <i>relative</i> and your task is to figure out what it is relative to. <br /> <br /> For example: <br /><br />,1,1567791301097,1,NA,1,NA,NA,comp_class_warmup,NA
479,<i>What do you think Speaker A meant? </i>,NA,The Empire State Building is tall relative to other,NA,12,NA,NA,NA,none,1,NA,barbara,NA,NA,yes,NA,32,buildings,Thank you!,NA,NA,NA,higher_degree,NA,english,female,NA,NA,In the main trials you will be asked to rephrase something a person said. The utterance will contain a word that is <i>relative</i> and your task is to figure out what it is relative to. <br /> <br /> For example: <br /><br />,1,1567791301097,2,NA,1,NA,NA,comp_class_warmup,NA
479,NA,pug,NA,NA,12,warmup/great-dane.jpg,pug,This is a,none,1,dogs,barbara,great dane,NA,yes,Please label the pictures below.,32,NA,Thank you!,NA,warmup/pug.jpg,dogs,higher_degree,NA,english,female,NA,dogs,NA,1,1567791301097,1,This is a,1,These are both,great dane,warmup1,NA
479,NA,chihuahua,NA,NA,12,warmup/doberman.png,chihuahua,This is a,none,1,dogs,barbara,doberman,NA,yes,Please label the pictures below.,32,NA,Thank you!,NA,warmup/chihuahua.jpg,dogs,higher_degree,NA,english,female,NA,dogs,NA,2,1567791301097,1,This is a,1,These are both,doberman,warmup1,NA
479,NA,dandilion,NA,NA,12,warmup/sunflower.png,dandelion,This is a,none,1,flowers,barbara,sunflower,NA,yes,Please label the pictures below.,32,NA,Thank you!,NA,warmup/dandelion.jpg,flowers,higher_degree,NA,english,female,NA,flowers,NA,3,1567791301097,1,This is a,1,These are both,sunflower,warmup1,NA
479,NA,dandelion,NA,NA,12,warmup/sunflower.png,dandelion,This is a,none,1,flowers,barbara,sunflower,NA,yes,Please label the pictures below.,32,NA,Thank you!,NA,warmup/dandelion.jpg,flowers,higher_degree,NA,english,female,NA,flowers,NA,3,1567791301097,2,This is a,1,These are both,sunflower,warmup1,NA
479,What do you think your friend meant?,NA,It is small relative to other,images/dog-parade-basic.png,12,NA,NA,NA,none,1,dogs1,barbara,NA,0,yes,"You and your friend see another member of the group <br />(not pictured), and your friend says: <br/><b>That chihuahua is small.</b>",32,dogs,Thank you!,0,NA,NA,higher_degree,small,english,female,NA,NA,You and your friend see the following:,1,1567791301097,NA,NA,1,NA,NA,custom_main_text1,predicative
479,What do you think your friend meant?,NA,It is small relative to other,images/flower-parade-dandelion.png,12,NA,NA,NA,none,1,flowers,barbara,NA,1,yes,"You and your friend see another member of the group <br />(not pictured), and your friend says: <br/><b>That one is small.</b>",32,dandelions,Thank you!,1,NA,NA,higher_degree,small,english,female,NA,NA,You and your friend see the following:,2,1567791301097,NA,NA,1,NA,NA,custom_main_text1,predicative
479,What do you think your friend meant?,NA,It is small relative to other,images/dog-parade-pug.png,12,NA,NA,NA,none,1,dogs2,barbara,NA,1,yes,"You and your friend see another member of the group <br />(not pictured), and your friend says: <br/><b>That pug is small.</b>",32,pugs,Thank you!,0,NA,NA,higher_degree,small,english,female,NA,NA,You and your friend see the following:,3,1567791301097,NA,NA,1,NA,NA,custom_main_text1,predicative
479,NA,hummingbird,NA,NA,12,warmup/eagle.jpg,hummingbird,This is a,none,1,birds,barbara,eagle,NA,yes,Please label the pictures below.,32,NA,Thank you!,NA,warmup/colibri.jpg,birds,higher_degree,NA,english,female,NA,birds,NA,1,1567791301097,1,This is an,1,These are both,eagle,warmup2,NA
479,NA,swordfish,NA,NA,12,warmup/goldfish.png,swordfish,This is a,none,1,fish,barbara,goldfish,NA,yes,Please label the pictures below.,32,NA,Thank you!,NA,warmup/swordfish.jpg,fish,higher_degree,NA,english,female,NA,fish,NA,2,1567791301097,1,This is a,1,These are both,goldfish,warmup2,NA
479,NA,redwood,NA,NA,12,warmup/bonsai.jpg,redwood or sequoia (choose one),This is a,none,1,trees,barbara,bonsai,NA,yes,Please label the pictures below.,32,NA,Thank you!,NA,warmup/sequoia.png,trees,higher_degree,NA,english,female,NA,trees,NA,3,1567791301097,1,This is a,1,These are both,bonsai,warmup2,NA
479,What do you think your friend meant?,NA,It is small relative to other,images/tree-parade-redwood.png,12,NA,NA,NA,none,1,trees,barbara,NA,2,yes,"You and your friend see another member of the group <br />(not pictured), and your friend says: <br/><b>That one is small.</b>",32,redwoods,Thank you!,1,NA,NA,higher_degree,small,english,female,NA,NA,You and your friend see the following:,1,1567791301097,NA,NA,1,NA,NA,custom_main_text2,predicative
479,What do you think your friend meant?,NA,It is big relative to other,images/bird-parade-basic.png,12,NA,NA,NA,none,1,birds,barbara,NA,0,yes,"You and your friend see another member of the group <br />(not pictured), and your friend says: <br/><b>That eagle is big.</b>",32,birds,Thank you!,0,NA,NA,higher_degree,big,english,female,NA,NA,You and your friend see the following:,2,1567791301097,NA,NA,1,NA,NA,custom_main_text2,predicative
479,What do you think your friend meant?,NA,It is big relative to other,images/fish-parade-basic.png,12,NA,NA,NA,none,1,fish,barbara,NA,0,yes,"You and your friend see another member of the group <br />(not pictured), and your friend says: <br/><b>That one is big.</b>",32,fish,Thank you!,1,NA,NA,higher_degree,big,english,female,NA,NA,You and your friend see the following:,3,1567791301097,NA,NA,1,NA,NA,custom_main_text2,predicative
478,<i>What do you think Speaker A meant? </i>,NA,The Empire State Building is tall relative to other,NA,12,NA,NA,NA,some of the words you wanted were hard to spell! Like Chiuauaua or sequoia.,2,NA,patricia,NA,NA,yes,NA,32,buildings,NA,NA,NA,NA,graduated_college,NA,English,female,NA,NA,In the main trials you will be asked to rephrase something a person said. The utterance will contain a word that is <i>relative</i> and your task is to figure out what it is relative to. <br /> <br /> For example: <br /><br />,1,1567791330482,1,NA,NA,NA,NA,comp_class_warmup,NA
478,NA,tree,NA,NA,12,warmup/bonsai.jpg,redwood or sequoia (choose one),This is a,some of the words you wanted were hard to spell! Like Chiuauaua or sequoia.,2,trees,patricia,bonsai,NA,yes,Please label the pictures below.,32,NA,NA,NA,warmup/sequoia.png,plants,graduated_college,NA,English,female,NA,trees,NA,1,1567791330482,1,This is a,NA,These are both,bush,warmup1,NA
478,NA,redwood,NA,NA,12,warmup/bonsai.jpg,redwood or sequoia (choose one),This is a,some of the words you wanted were hard to spell! Like Chiuauaua or sequoia.,2,trees,patricia,bonsai,NA,yes,Please label the pictures below.,32,NA,NA,NA,warmup/sequoia.png,trees,graduated_college,NA,English,female,NA,trees,NA,1,1567791330482,2,This is a,NA,These are both,bonsai,warmup1,NA
478,NA,pug,NA,NA,12,warmup/great-dane.jpg,pug,This is a,some of the words you wanted were hard to spell! Like Chiuauaua or sequoia.,2,dogs,patricia,great dane,NA,yes,Please label the pictures below.,32,NA,NA,NA,warmup/pug.jpg,dogs,graduated_college,NA,English,female,NA,dogs,NA,2,1567791330482,1,This is a,NA,These are both,great dane,warmup1,NA
478,NA,dandelion,NA,NA,12,warmup/sunflower.png,dandelion,This is a,some of the words you wanted were hard to spell! Like Chiuauaua or sequoia.,2,flowers,patricia,sunflower,NA,yes,Please label the pictures below.,32,NA,NA,NA,warmup/dandelion.jpg,flowers,graduated_college,NA,English,female,NA,flowers,NA,3,1567791330482,1,This is a,NA,These are both,sunflower,warmup1,NA
478,What do you think your friend meant?,NA,It is big relative to other,images/flower-parade-basic.png,12,NA,NA,NA,some of the words you wanted were hard to spell! Like Chiuauaua or sequoia.,2,flowers,patricia,NA,0,yes,"You and your friend see another member of the group <br />(not pictured), and your friend says: <br/><b>That sunflower is big.</b>",32,flowers,NA,0,NA,NA,graduated_college,big,English,female,NA,NA,You and your friend see the following:,1,1567791330482,NA,NA,NA,NA,NA,custom_main_text1,predicative
478,What do you think your friend meant?,NA,It is big relative to other,images/dog-parade-great-dane.png,12,NA,NA,NA,some of the words you wanted were hard to spell! Like Chiuauaua or sequoia.,2,dogs2,patricia,NA,1,yes,"You and your friend see another member of the group <br />(not pictured), and your friend says: <br/><b>That one is big.</b>",32,dogs,NA,1,NA,NA,graduated_college,big,English,female,NA,NA,You and your friend see the following:,2,1567791330482,NA,NA,NA,NA,NA,custom_main_text1,predicative
478,What do you think your friend meant?,NA,It is big relative to other,images/tree-parade-redwood.png,12,NA,NA,NA,some of the words you wanted were hard to spell! Like Chiuauaua or sequoia.,2,trees,patricia,NA,1,yes,"You and your friend see another member of the group <br />(not pictured), and your friend says: <br/><b>That redwood is big.</b>",32,trees,NA,0,NA,NA,graduated_college,big,English,female,NA,NA,You and your friend see the following:,3,1567791330482,NA,NA,NA,NA,NA,custom_main_text1,predicative
478,NA,hummingbird,NA,NA,12,warmup/eagle.jpg,hummingbird,This is a,some of the words you wanted were hard to spell! Like Chiuauaua or sequoia.,2,birds,patricia,eagle,NA,yes,Please label the pictures below.,32,NA,NA,NA,warmup/colibri.jpg,birds,graduated_college,NA,English,female,NA,birds,NA,1,1567791330482,1,This is an,NA,These are both,eagle,warmup2,NA
478,NA,swordfish,NA,NA,12,warmup/goldfish.png,swordfish,This is a,some of the words you wanted were hard to spell! Like Chiuauaua or sequoia.,2,fish,patricia,goldfish,NA,yes,Please label the pictures below.,32,NA,NA,NA,warmup/swordfish.jpg,fish,graduated_college,NA,English,female,NA,fish,NA,2,1567791330482,1,This is a,NA,These are both,goldfish,warmup2,NA
478,NA,chiuauau,NA,NA,12,warmup/doberman.png,chihuahua,This is a,some of the words you wanted were hard to spell! Like Chiuauaua or sequoia.,2,dogs,patricia,doberman,NA,yes,Please label the pictures below.,32,NA,NA,NA,warmup/chihuahua.jpg,dogs,graduated_college,NA,English,female,NA,dogs,NA,3,1567791330482,1,This is a,NA,These are both,alsaitain,warmup2,NA
478,NA,chihuahua,NA,NA,12,warmup/doberman.png,chihuahua,This is a,some of the words you wanted were hard to spell! Like Chiuauaua or sequoia.,2,dogs,patricia,doberman,NA,yes,Please label the pictures below.,32,NA,NA,NA,warmup/chihuahua.jpg,dogs,graduated_college,NA,English,female,NA,dogs,NA,3,1567791330482,2,This is a,NA,These are both,doberman,warmup2,NA
478,What do you think your friend meant?,NA,It is small relative to other,images/bird-parade-basic.png,12,NA,NA,NA,some of the words you wanted were hard to spell! Like Chiuauaua or sequoia.,2,birds,patricia,NA,0,yes,"You and your friend see another member of the group <br />(not pictured), and your friend says: <br/><b>That hummingbird is small.</b>",32,birds,NA,0,NA,NA,graduated_college,small,English,female,NA,NA,You and your friend see the following:,1,1567791330482,NA,NA,NA,NA,NA,custom_main_text2,predicative
478,What do you think your friend meant?,NA,It is small relative to other,images/dog-parade-chihuahua.png,12,NA,NA,NA,some of the words you wanted were hard to spell! Like Chiuauaua or sequoia.,2,dogs1,patricia,NA,1,yes,"You and your friend see another member of the group <br />(not pictured), and your friend says: <br/><b>That one is small.</b>",32,dogs,NA,1,NA,NA,graduated_college,small,English,female,NA,NA,You and your friend see the following:,2,1567791330482,NA,NA,NA,NA,NA,custom_main_text2,predicative
478,What do you think your friend meant?,NA,It is small relative to other,images/fish-parade-basic.png,12,NA,NA,NA,some of the words you wanted were hard to spell! Like Chiuauaua or sequoia.,2,fish,patricia,NA,0,yes,"You and your friend see another member of the group <br />(not pictured), and your friend says: <br/><b>That one is small.</b>",32,fish,NA,1,NA,NA,graduated_college,small,English,female,NA,NA,You and your friend see the following:,3,1567791330482,NA,NA,NA,NA,NA,custom_main_text2,predicative
476,<i>What do you think Speaker A meant? </i>,NA,The Empire State Building is tall relative to other,NA,12,NA,NA,NA,No,2,NA,Linda,NA,NA,yes,NA,31,buildings,NA,NA,NA,NA,graduated_college,NA,English,male,NA,NA,In the main trials you will be asked to rephrase something a person said. The utterance will contain a word that is <i>relative</i> and your task is to figure out what it is relative to. <br /> <br /> For example: <br /><br />,1,1567791280022,1,NA,1,NA,NA,comp_class_warmup,NA
476,NA,oak,NA,NA,12,warmup/bonsai.jpg,redwood or sequoia (choose one),This is a,No,2,trees,Linda,bonsai,NA,yes,Please label the pictures below.,31,NA,NA,NA,warmup/sequoia.png,trees,graduated_college,NA,English,male,NA,trees,NA,1,1567791280022,1,This is a,1,These are both,bonsai,warmup1,NA
476,NA,redwood,NA,NA,12,warmup/bonsai.jpg,redwood or sequoia (choose one),This is a,No,2,trees,Linda,bonsai,NA,yes,Please label the pictures below.,31,NA,NA,NA,warmup/sequoia.png,trees,graduated_college,NA,English,male,NA,trees,NA,1,1567791280022,2,This is a,1,These are both,bonsai,warmup1,NA
476,NA,hummingbird,NA,NA,12,warmup/eagle.jpg,hummingbird,This is a,No,2,birds,Linda,eagle,NA,yes,Please label the pictures below.,31,NA,NA,NA,warmup/colibri.jpg,birds,graduated_college,NA,English,male,NA,birds,NA,2,1567791280022,1,This is an,1,These are both,eagle,warmup1,NA
476,NA,dandelion,NA,NA,12,warmup/sunflower.png,dandelion,This is a,No,2,flowers,Linda,sunflower,NA,yes,Please label the pictures below.,31,NA,NA,NA,warmup/dandelion.jpg,flowers,graduated_college,NA,English,male,NA,flowers,NA,3,1567791280022,1,This is a,1,These are both,sunflower,warmup1,NA
476,What do you think your friend meant?,NA,It is big relative to other,images/tree-parade-basic.png,12,NA,NA,NA,No,2,trees,Linda,NA,0,yes,"You and your friend see another member of the group <br />(not pictured), and your friend says: <br/><b>That redwood is big.</b>",31,trees,NA,0,NA,NA,graduated_college,big,English,male,NA,NA,You and your friend see the following:,1,1567791280022,NA,NA,1,NA,NA,custom_main_text1,predicative
476,What do you think your friend meant?,NA,It is small relative to other,images/bird-parade-basic.png,12,NA,NA,NA,No,2,birds,Linda,NA,0,yes,"You and your friend see another member of the group <br />(not pictured), and your friend says: <br/><b>That one is small.</b>",31,birds,NA,1,NA,NA,graduated_college,small,English,male,NA,NA,You and your friend see the following:,2,1567791280022,NA,NA,1,NA,NA,custom_main_text1,predicative
476,What do you think your friend meant?,NA,It is small relative to other,images/flower-parade-dandelion.png,12,NA,NA,NA,No,2,flowers,Linda,NA,1,yes,"You and your friend see another member of the group <br />(not pictured), and your friend says: <br/><b>That dandelion is small.</b>",31,flowers,NA,0,NA,NA,graduated_college,small,English,male,NA,NA,You and your friend see the following:,3,1567791280022,NA,NA,1,NA,NA,custom_main_text1,predicative
476,NA,chihuahua,NA,NA,12,warmup/doberman.png,chihuahua,This is a,No,2,dogs,Linda,doberman,NA,yes,Please label the pictures below.,31,NA,NA,NA,warmup/chihuahua.jpg,dogs,graduated_college,NA,English,male,NA,dogs,NA,1,1567791280022,1,This is a,1,These are both,doberman,warmup2,NA
476,NA,pug,NA,NA,12,warmup/great-dane.jpg,pug,This is a,No,2,dogs,Linda,great dane,NA,yes,Please label the pictures below.,31,NA,NA,NA,warmup/pug.jpg,dogs,graduated_college,NA,English,male,NA,dogs,NA,2,1567791280022,1,This is a,1,These are both,great dane,warmup2,NA
476,NA,swordfish,NA,NA,12,warmup/goldfish.png,swordfish,This is a,No,2,fish,Linda,goldfish,NA,yes,Please label the pictures below.,31,NA,NA,NA,warmup/swordfish.jpg,fish,graduated_college,NA,English,male,NA,fish,NA,3,1567791280022,1,This is a,1,These are both,goldfish,warmup2,NA
476,What do you think your friend meant?,NA,It is big relative to other,images/dog-parade-doberman.png,12,NA,NA,NA,No,2,dogs1,Linda,NA,1,yes,"You and your friend see another member of the group <br />(not pictured), and your friend says: <br/><b>That one is big.</b>",31,dobermans,NA,1,NA,NA,graduated_college,big,English,male,NA,NA,You and your friend see the following:,1,1567791280022,NA,NA,1,NA,NA,custom_main_text2,predicative
476,What do you think your friend meant?,NA,It is small relative to other,images/fish-parade-basic.png,12,NA,NA,NA,No,2,fish,Linda,NA,0,yes,"You and your friend see another member of the group <br />(not pictured), and your friend says: <br/><b>That goldfish is small.</b>",31,fish,NA,0,NA,NA,graduated_college,small,English,male,NA,NA,You and your friend see the following:,2,1567791280022,NA,NA,1,NA,NA,custom_main_text2,predicative
476,What do you think your friend meant?,NA,It is big relative to other,images/dog-parade-great-dane.png,12,NA,NA,NA,No,2,dogs2,Linda,NA,1,yes,"You and your friend see another member of the group <br />(not pictured), and your friend says: <br/><b>That one is big.</b>",31,dogs,NA,1,NA,NA,graduated_college,big,English,male,NA,NA,You and your friend see the following:,3,1567791280022,NA,NA,1,NA,NA,custom_main_text2,predicative
474,<i>What do you think Speaker A meant? </i>,NA,The Empire State Building is tall relative to other,NA,12,NA,NA,NA,No,2,NA,jennifer,NA,NA,yes,NA,32,other buildings,Enjoyable,NA,NA,NA,graduated_college,NA,English,male,NA,NA,In the main trials you will be asked to rephrase something a person said. The utterance will contain a word that is <i>relative</i> and your task is to figure out what it is relative to. <br /> <br /> For example: <br /><br />,1,1567790957659,1,NA,1,NA,NA,comp_class_warmup,NA
474,<i>What do you think Speaker A meant? </i>,NA,The Empire State Building is tall relative to other,NA,12,NA,NA,NA,No,2,NA,jennifer,NA,NA,yes,NA,32,buildings,Enjoyable,NA,NA,NA,graduated_college,NA,English,male,NA,NA,In the main trials you will be asked to rephrase something a person said. The utterance will contain a word that is <i>relative</i> and your task is to figure out what it is relative to. <br /> <br /> For example: <br /><br />,1,1567790957659,2,NA,1,NA,NA,comp_class_warmup,NA
474,NA,swordfish,NA,NA,12,warmup/goldfish.png,swordfish,This is a,No,2,fish,jennifer,goldfish,NA,yes,Please label the pictures below.,32,NA,Enjoyable,NA,warmup/swordfish.jpg,fish,graduated_college,NA,English,male,NA,fish,NA,1,1567790957659,1,This is a,1,These are both,goldfish,warmup1,NA
474,NA,dandelion,NA,NA,12,warmup/sunflower.png,dandelion,This is a,No,2,flowers,jennifer,sunflower,NA,yes,Please label the pictures below.,32,NA,Enjoyable,NA,warmup/dandelion.jpg,plants,graduated_college,NA,English,male,NA,flowers,NA,2,1567790957659,1,This is a,1,These are both,sunflower,warmup1,NA
474,NA,dandelion,NA,NA,12,warmup/sunflower.png,dandelion,This is a,No,2,flowers,jennifer,sunflower,NA,yes,Please label the pictures below.,32,NA,Enjoyable,NA,warmup/dandelion.jpg,flowers,graduated_college,NA,English,male,NA,flowers,NA,2,1567790957659,2,This is a,1,These are both,sunflower,warmup1,NA
474,NA,hummingbird,NA,NA,12,warmup/eagle.jpg,hummingbird,This is a,No,2,birds,jennifer,eagle,NA,yes,Please label the pictures below.,32,NA,Enjoyable,NA,warmup/colibri.jpg,birds,graduated_college,NA,English,male,NA,birds,NA,3,1567790957659,1,This is an,1,These are both,eagle,warmup1,NA
474,What do you think your friend meant?,NA,It is small relative to other,images/bird-parade-eagle.png,12,NA,NA,NA,No,2,birds,jennifer,NA,2,yes,"You and your friend see another member of the group <br />(not pictured), and your friend says: <br/><b>That one is small.</b>",32,eagles,Enjoyable,1,NA,NA,graduated_college,small,English,male,NA,NA,You and your friend see the following:,1,1567790957659,NA,NA,1,NA,NA,custom_main_text1,predicative
474,What do you think your friend meant?,NA,It is small relative to other,images/fish-parade-basic.png,12,NA,NA,NA,No,2,fish,jennifer,NA,0,yes,"You and your friend see another member of the group <br />(not pictured), and your friend says: <br/><b>That goldfish is small.</b>",32,fishes,Enjoyable,0,NA,NA,graduated_college,small,English,male,NA,NA,You and your friend see the following:,2,1567790957659,NA,NA,1,NA,NA,custom_main_text1,predicative
474,What do you think your friend meant?,NA,It is small relative to other,images/flower-parade-basic.png,12,NA,NA,NA,No,2,flowers,jennifer,NA,0,yes,"You and your friend see another member of the group <br />(not pictured), and your friend says: <br/><b>That one is small.</b>",32,flowers,Enjoyable,1,NA,NA,graduated_college,small,English,male,NA,NA,You and your friend see the following:,3,1567790957659,NA,NA,1,NA,NA,custom_main_text1,predicative
474,NA,Chihuahua,NA,NA,12,warmup/doberman.png,chihuahua,This is a,No,2,dogs,jennifer,doberman,NA,yes,Please label the pictures below.,32,NA,Enjoyable,NA,warmup/chihuahua.jpg,dogs,graduated_college,NA,English,male,NA,dogs,NA,1,1567790957659,1,This is a,1,These are both,Doberman,warmup2,NA
474,NA,sequoia,NA,NA,12,warmup/bonsai.jpg,redwood or sequoia (choose one),This is a,No,2,trees,jennifer,bonsai,NA,yes,Please label the pictures below.,32,NA,Enjoyable,NA,warmup/sequoia.png,trees,graduated_college,NA,English,male,NA,trees,NA,2,1567790957659,1,This is a,1,These are both,bonsai,warmup2,NA
474,NA,pug,NA,NA,12,warmup/great-dane.jpg,pug,This is a,No,2,dogs,jennifer,great dane,NA,yes,Please label the pictures below.,32,NA,Enjoyable,NA,warmup/pug.jpg,dogs,graduated_college,NA,English,male,NA,dogs,NA,3,1567790957659,1,This is a,1,These are both,great dane,warmup2,NA
474,What do you think your friend meant?,NA,It is big relative to other,images/tree-parade-basic.png,12,NA,NA,NA,No,2,trees,jennifer,NA,0,yes,"You and your friend see another member of the group <br />(not pictured), and your friend says: <br/><b>That redwood is big.</b>",32,trees,Enjoyable,0,NA,NA,graduated_college,big,English,male,NA,NA,You and your friend see the following:,1,1567790957659,NA,NA,1,NA,NA,custom_main_text2,predicative
474,What do you think your friend meant?,NA,It is small relative to other,images/dog-parade-chihuahua.png,12,NA,NA,NA,No,2,dogs1,jennifer,NA,1,yes,"You and your friend see another member of the group <br />(not pictured), and your friend says: <br/><b>That one is small.</b>",32,chihuahuas,Enjoyable,1,NA,NA,graduated_college,small,English,male,NA,NA,You and your friend see the following:,2,1567790957659,NA,NA,1,NA,NA,custom_main_text2,predicative
474,What do you think your friend meant?,NA,It is small relative to other,images/dog-parade-great-dane.png,12,NA,NA,NA,No,2,dogs2,jennifer,NA,2,yes,"You and your friend see another member of the group <br />(not pictured), and your friend says: <br/><b>That great dane is small.</b>",32,dogs,Enjoyable,0,NA,NA,graduated_college,small,English,male,NA,NA,You and your friend see the following:,3,1567790957659,NA,NA,1,NA,NA,custom_main_text2,predicative
473,<i>What do you think Speaker A meant? </i>,NA,The Empire State Building is tall relative to other,NA,12,NA,NA,NA,NA,2,NA,barbara,NA,NA,yes,NA,22,buildings,NA,NA,NA,NA,graduated_high_school,NA,English,male,NA,NA,In the main trials you will be asked to rephrase something a person said. The utterance will contain a word that is <i>relative</i> and your task is to figure out what it is relative to. <br /> <br /> For example: <br /><br />,1,1567790946789,1,NA,1.2,NA,NA,comp_class_warmup,NA
473,NA,chihuhua,NA,NA,12,warmup/doberman.png,chihuahua,This is a,NA,2,dogs,barbara,doberman,NA,yes,Please label the pictures below.,22,NA,NA,NA,warmup/chihuahua.jpg,dogs,graduated_high_school,NA,English,male,NA,dogs,NA,1,1567790946789,1,This is a,1.2,These are both,doberman,warmup1,NA
473,NA,chihuhua,NA,NA,12,warmup/doberman.png,chihuahua,This is a,NA,2,dogs,barbara,doberman,NA,yes,Please label the pictures below.,22,NA,NA,NA,warmup/chihuahua.jpg,dogs,graduated_high_school,NA,English,male,NA,dogs,NA,1,1567790946789,2,This is a,1.2,These are both,doberman,warmup1,NA
473,NA,chihuhua,NA,NA,12,warmup/doberman.png,chihuahua,This is a,NA,2,dogs,barbara,doberman,NA,yes,Please label the pictures below.,22,NA,NA,NA,warmup/chihuahua.jpg,dogs,graduated_high_school,NA,English,male,NA,dogs,NA,1,1567790946789,3,This is a,1.2,These are both,doberman,warmup1,NA
473,NA,chihuhua,NA,NA,12,warmup/doberman.png,chihuahua,This is a,NA,2,dogs,barbara,doberman,NA,yes,Please label the pictures below.,22,NA,NA,NA,warmup/chihuahua.jpg,dogs,graduated_high_school,NA,English,male,NA,dogs,NA,1,1567790946789,4,This is a,1.2,These are both,doberman,warmup1,NA
473,NA,chihuhua,NA,NA,12,warmup/doberman.png,chihuahua,This is a,NA,2,dogs,barbara,doberman,NA,yes,Please label the pictures below.,22,NA,NA,NA,warmup/chihuahua.jpg,dogs,graduated_high_school,NA,English,male,NA,dogs,NA,1,1567790946789,5,This is a,1.2,These are both,doberman,warmup1,NA
473,NA,chihuahua,NA,NA,12,warmup/doberman.png,chihuahua,This is a,NA,2,dogs,barbara,doberman,NA,yes,Please label the pictures below.,22,NA,NA,NA,warmup/chihuahua.jpg,dogs,graduated_high_school,NA,English,male,NA,dogs,NA,1,1567790946789,6,This is a,1.2,These are both,doberman,warmup1,NA
473,NA,sunflower,NA,NA,12,warmup/sunflower.png,dandelion,This is a,NA,2,flowers,barbara,sunflower,NA,yes,Please label the pictures below.,22,NA,NA,NA,warmup/dandelion.jpg,flowers,graduated_high_school,NA,English,male,NA,flowers,NA,2,1567790946789,1,This is a,1.2,These are both,sunflower,warmup1,NA
473,NA,dandlion,NA,NA,12,warmup/sunflower.png,dandelion,This is a,NA,2,flowers,barbara,sunflower,NA,yes,Please label the pictures below.,22,NA,NA,NA,warmup/dandelion.jpg,flowers,graduated_high_school,NA,English,male,NA,flowers,NA,2,1567790946789,2,This is a,1.2,These are both,sunflower,warmup1,NA
473,NA,dandelion,NA,NA,12,warmup/sunflower.png,dandelion,This is a,NA,2,flowers,barbara,sunflower,NA,yes,Please label the pictures below.,22,NA,NA,NA,warmup/dandelion.jpg,flowers,graduated_high_school,NA,English,male,NA,flowers,NA,2,1567790946789,3,This is a,1.2,These are both,sunflower,warmup1,NA
473,NA,hummingbird,NA,NA,12,warmup/eagle.jpg,hummingbird,This is a,NA,2,birds,barbara,eagle,NA,yes,Please label the pictures below.,22,NA,NA,NA,warmup/colibri.jpg,birds,graduated_high_school,NA,English,male,NA,birds,NA,3,1567790946789,1,This is an,1.2,These are both,eagle,warmup1,NA
473,What do you think your friend meant?,NA,It is big relative to other,images/dog-parade-basic.png,12,NA,NA,NA,NA,2,dogs1,barbara,NA,0,yes,"You and your friend see another member of the group <br />(not pictured), and your friend says: <br/><b>That doberman is big.</b>",22,dogs,NA,0,NA,NA,graduated_high_school,big,English,male,NA,NA,You and your friend see the following:,1,1567790946789,NA,NA,1.2,NA,NA,custom_main_text1,predicative
473,What do you think your friend meant?,NA,It is big relative to other,images/flower-parade-dandelion.png,12,NA,NA,NA,NA,2,flowers,barbara,NA,2,yes,"You and your friend see another member of the group <br />(not pictured), and your friend says: <br/><b>That one is big.</b>",22,flowers,NA,1,NA,NA,graduated_high_school,big,English,male,NA,NA,You and your friend see the following:,2,1567790946789,NA,NA,1.2,NA,NA,custom_main_text1,predicative
473,What do you think your friend meant?,NA,It is big relative to other,images/bird-parade-eagle.png,12,NA,NA,NA,NA,2,birds,barbara,NA,1,yes,"You and your friend see another member of the group <br />(not pictured), and your friend says: <br/><b>That eagle is big.</b>",22,EAGLES,NA,0,NA,NA,graduated_high_school,big,English,male,NA,NA,You and your friend see the following:,3,1567790946789,NA,NA,1.2,NA,NA,custom_main_text1,predicative
473,NA,bulldog,NA,NA,12,warmup/great-dane.jpg,pug,This is a,NA,2,dogs,barbara,great dane,NA,yes,Please label the pictures below.,22,NA,NA,NA,warmup/pug.jpg,dogs,graduated_high_school,NA,English,male,NA,dogs,NA,1,1567790946789,1,This is a,1.2,These are both,greyhound,warmup2,NA
473,NA,pug,NA,NA,12,warmup/great-dane.jpg,pug,This is a,NA,2,dogs,barbara,great dane,NA,yes,Please label the pictures below.,22,NA,NA,NA,warmup/pug.jpg,dogs,graduated_high_school,NA,English,male,NA,dogs,NA,1,1567790946789,2,This is a,1.2,These are both,great dane,warmup2,NA
473,NA,swordfish,NA,NA,12,warmup/goldfish.png,swordfish,This is a,NA,2,fish,barbara,goldfish,NA,yes,Please label the pictures below.,22,NA,NA,NA,warmup/swordfish.jpg,fosh,graduated_high_school,NA,English,male,NA,fish,NA,2,1567790946789,1,This is a,1.2,These are both,nemo,warmup2,NA
473,NA,swordfish,NA,NA,12,warmup/goldfish.png,swordfish,This is a,NA,2,fish,barbara,goldfish,NA,yes,Please label the pictures below.,22,NA,NA,NA,warmup/swordfish.jpg,fish,graduated_high_school,NA,English,male,NA,fish,NA,2,1567790946789,2,This is a,1.2,These are both,goldfish,warmup2,NA
473,NA,tree,NA,NA,12,warmup/bonsai.jpg,redwood or sequoia (choose one),This is a,NA,2,trees,barbara,bonsai,NA,yes,Please label the pictures below.,22,NA,NA,NA,warmup/sequoia.png,trees,graduated_high_school,NA,English,male,NA,trees,NA,3,1567790946789,1,This is a,1.2,These are both,plant,warmup2,NA
473,NA,redwood,NA,NA,12,warmup/bonsai.jpg,redwood or sequoia (choose one),This is a,NA,2,trees,barbara,bonsai,NA,yes,Please label the pictures below.,22,NA,NA,NA,warmup/sequoia.png,trees,graduated_high_school,NA,English,male,NA,trees,NA,3,1567790946789,2,This is a,1.2,These are both,plantbonsai,warmup2,NA
473,NA,redwood,NA,NA,12,warmup/bonsai.jpg,redwood or sequoia (choose one),This is a,NA,2,trees,barbara,bonsai,NA,yes,Please label the pictures below.,22,NA,NA,NA,warmup/sequoia.png,trees,graduated_high_school,NA,English,male,NA,trees,NA,3,1567790946789,3,This is a,1.2,These are both,bonsai,warmup2,NA
473,What do you think your friend meant?,NA,It is big relative to other,images/fish-parade-goldfish.png,12,NA,NA,NA,NA,2,fish,barbara,NA,2,yes,"You and your friend see another member of the group <br />(not pictured), and your friend says: <br/><b>That goldfish is big.</b>",22,goldfish,NA,0,NA,NA,graduated_high_school,big,English,male,NA,NA,You and your friend see the following:,1,1567790946789,NA,NA,1.2,NA,NA,custom_main_text2,predicative
473,What do you think your friend meant?,NA,It is big relative to other,images/dog-parade-basic2.png,12,NA,NA,NA,NA,2,dogs2,barbara,NA,0,yes,"You and your friend see another member of the group <br />(not pictured), and your friend says: <br/><b>That one is big.</b>",22,dogs,NA,1,NA,NA,graduated_high_school,big,English,male,NA,NA,You and your friend see the following:,2,1567790946789,NA,NA,1.2,NA,NA,custom_main_text2,predicative
473,What do you think your friend meant?,NA,It is small relative to other,images/tree-parade-basic.png,12,NA,NA,NA,NA,2,trees,barbara,NA,0,yes,"You and your friend see another member of the group <br />(not pictured), and your friend says: <br/><b>That one is small.</b>",22,trees,NA,1,NA,NA,graduated_high_school,small,English,male,NA,NA,You and your friend see the following:,3,1567790946789,NA,NA,1.2,NA,NA,custom_main_text2,predicative
472,<i>What do you think Speaker A meant? </i>,NA,The Empire State Building is tall relative to other,NA,12,NA,NA,NA,none,2,NA,Elizabeth,NA,NA,yes,NA,42,buildings,NA,NA,NA,NA,graduated_high_school,NA,english,male,NA,NA,In the main trials you will be asked to rephrase something a person said. The utterance will contain a word that is <i>relative</i> and your task is to figure out what it is relative to. <br /> <br /> For example: <br /><br />,1,1567791064774,1,NA,1,NA,NA,comp_class_warmup,NA
472,NA,humming bird,NA,NA,12,warmup/eagle.jpg,hummingbird,This is a,none,2,birds,Elizabeth,eagle,NA,yes,Please label the pictures below.,42,NA,NA,NA,warmup/colibri.jpg,birds,graduated_high_school,NA,english,male,NA,birds,NA,1,1567791064774,1,This is an,1,These are both,eagle,warmup1,NA
472,NA,hummingbird,NA,NA,12,warmup/eagle.jpg,hummingbird,This is a,none,2,birds,Elizabeth,eagle,NA,yes,Please label the pictures below.,42,NA,NA,NA,warmup/colibri.jpg,birds,graduated_high_school,NA,english,male,NA,birds,NA,1,1567791064774,2,This is an,1,These are both,eagle,warmup1,NA
472,NA,dandelion,NA,NA,12,warmup/sunflower.png,dandelion,This is a,none,2,flowers,Elizabeth,sunflower,NA,yes,Please label the pictures below.,42,NA,NA,NA,warmup/dandelion.jpg,flowers,graduated_high_school,NA,english,male,NA,flowers,NA,2,1567791064774,1,This is a,1,These are both,sunflower,warmup1,NA
472,NA,swordfish,NA,NA,12,warmup/goldfish.png,swordfish,This is a,none,2,fish,Elizabeth,goldfish,NA,yes,Please label the pictures below.,42,NA,NA,NA,warmup/swordfish.jpg,fish,graduated_high_school,NA,english,male,NA,fish,NA,3,1567791064774,1,This is a,1,These are both,goldfish,warmup1,NA
472,What do you think your friend meant?,NA,It is small relative to other,images/bird-parade-basic.png,12,NA,NA,NA,none,2,birds,Elizabeth,NA,0,yes,"You and your friend see another member of the group <br />(not pictured), and your friend says: <br/><b>That one is small.</b>",42,birds,NA,1,NA,NA,graduated_high_school,small,english,male,NA,NA,You and your friend see the following:,1,1567791064774,NA,NA,1,NA,NA,custom_main_text1,predicative
472,What do you think your friend meant?,NA,It is big relative to other,images/flower-parade-basic.png,12,NA,NA,NA,none,2,flowers,Elizabeth,NA,0,yes,"You and your friend see another member of the group <br />(not pictured), and your friend says: <br/><b>That one is big.</b>",42,flowers,NA,1,NA,NA,graduated_high_school,big,english,male,NA,NA,You and your friend see the following:,2,1567791064774,NA,NA,1,NA,NA,custom_main_text1,predicative
472,What do you think your friend meant?,NA,It is small relative to other,images/fish-parade-swordfish.png,12,NA,NA,NA,none,2,fish,Elizabeth,NA,2,yes,"You and your friend see another member of the group <br />(not pictured), and your friend says: <br/><b>That one is small.</b>",42,swordfish,NA,1,NA,NA,graduated_high_school,small,english,male,NA,NA,You and your friend see the following:,3,1567791064774,NA,NA,1,NA,NA,custom_main_text1,predicative
472,NA,Chihuahua,NA,NA,12,warmup/doberman.png,chihuahua,This is a,none,2,dogs,Elizabeth,doberman,NA,yes,Please label the pictures below.,42,NA,NA,NA,warmup/chihuahua.jpg,dogs,graduated_high_school,NA,english,male,NA,dogs,NA,1,1567791064774,1,This is a,1,These are both,doberman,warmup2,NA
472,NA,redwood,NA,NA,12,warmup/bonsai.jpg,redwood or sequoia (choose one),This is a,none,2,trees,Elizabeth,bonsai,NA,yes,Please label the pictures below.,42,NA,NA,NA,warmup/sequoia.png,trees,graduated_high_school,NA,english,male,NA,trees,NA,2,1567791064774,1,This is a,1,These are both,banzai,warmup2,NA
472,NA,redwood,NA,NA,12,warmup/bonsai.jpg,redwood or sequoia (choose one),This is a,none,2,trees,Elizabeth,bonsai,NA,yes,Please label the pictures below.,42,NA,NA,NA,warmup/sequoia.png,trees,graduated_high_school,NA,english,male,NA,trees,NA,2,1567791064774,2,This is a,1,These are both,bansai,warmup2,NA
472,NA,redwood,NA,NA,12,warmup/bonsai.jpg,redwood or sequoia (choose one),This is a,none,2,trees,Elizabeth,bonsai,NA,yes,Please label the pictures below.,42,NA,NA,NA,warmup/sequoia.png,trees,graduated_high_school,NA,english,male,NA,trees,NA,2,1567791064774,3,This is a,1,These are both,bansai,warmup2,NA
472,NA,redwood,NA,NA,12,warmup/bonsai.jpg,redwood or sequoia (choose one),This is a,none,2,trees,Elizabeth,bonsai,NA,yes,Please label the pictures below.,42,NA,NA,NA,warmup/sequoia.png,trees,graduated_high_school,NA,english,male,NA,trees,NA,2,1567791064774,4,This is a,1,These are both,bansai,warmup2,NA
472,NA,redwood,NA,NA,12,warmup/bonsai.jpg,redwood or sequoia (choose one),This is a,none,2,trees,Elizabeth,bonsai,NA,yes,Please label the pictures below.,42,NA,NA,NA,warmup/sequoia.png,trees,graduated_high_school,NA,english,male,NA,trees,NA,2,1567791064774,5,This is a,1,These are both,bansai,warmup2,NA
472,NA,redwood,NA,NA,12,warmup/bonsai.jpg,redwood or sequoia (choose one),This is a,none,2,trees,Elizabeth,bonsai,NA,yes,Please label the pictures below.,42,NA,NA,NA,warmup/sequoia.png,trees,graduated_high_school,NA,english,male,NA,trees,NA,2,1567791064774,6,This is a,1,These are both,bonsai,warmup2,NA
472,NA,pug,NA,NA,12,warmup/great-dane.jpg,pug,This is a,none,2,dogs,Elizabeth,great dane,NA,yes,Please label the pictures below.,42,NA,NA,NA,warmup/pug.jpg,dogs,graduated_high_school,NA,english,male,NA,dogs,NA,3,1567791064774,1,This is a,1,These are both,lab,warmup2,NA
472,NA,pug,NA,NA,12,warmup/great-dane.jpg,pug,This is a,none,2,dogs,Elizabeth,great dane,NA,yes,Please label the pictures below.,42,NA,NA,NA,warmup/pug.jpg,dogs,graduated_high_school,NA,english,male,NA,dogs,NA,3,1567791064774,2,This is a,1,These are both,great dane,warmup2,NA
472,What do you think your friend meant?,NA,It is big relative to other,images/dog-parade-basic2.png,12,NA,NA,NA,none,2,dogs2,Elizabeth,NA,0,yes,"You and your friend see another member of the group <br />(not pictured), and your friend says: <br/><b>That great dane is big.</b>",42,dogs,NA,0,NA,NA,graduated_high_school,big,english,male,NA,NA,You and your friend see the following:,1,1567791064774,NA,NA,1,NA,NA,custom_main_text2,predicative
472,What do you think your friend meant?,NA,It is big relative to other,images/dog-parade-chihuahua.png,12,NA,NA,NA,none,2,dogs1,Elizabeth,NA,2,yes,"You and your friend see another member of the group <br />(not pictured), and your friend says: <br/><b>That chihuahua is big.</b>",42,chihuahua,NA,0,NA,NA,graduated_high_school,big,english,male,NA,NA,You and your friend see the following:,2,1567791064774,NA,NA,1,NA,NA,custom_main_text2,predicative
472,What do you think your friend meant?,NA,It is small relative to other,images/tree-parade-bonsai.png,12,NA,NA,NA,none,2,trees,Elizabeth,NA,1,yes,"You and your friend see another member of the group <br />(not pictured), and your friend says: <br/><b>That bonsai is small.</b>",42,bonsai,NA,0,NA,NA,graduated_high_school,small,english,male,NA,NA,You and your friend see the following:,3,1567791064774,NA,NA,1,NA,NA,custom_main_text2,predicative
469,<i>What do you think Speaker A meant? </i>,NA,The Empire State Building is tall relative to other,NA,12,NA,NA,NA,no,2,NA,barbara,NA,NA,yes,NA,33,skyscrapers,None,NA,NA,NA,graduated_college,NA,english,male,NA,NA,In the main trials you will be asked to rephrase something a person said. The utterance will contain a word that is <i>relative</i> and your task is to figure out what it is relative to. <br /> <br /> For example: <br /><br />,1,1567790117501,1,NA,1,NA,NA,comp_class_warmup,NA
469,<i>What do you think Speaker A meant? </i>,NA,The Empire State Building is tall relative to other,NA,12,NA,NA,NA,no,2,NA,barbara,NA,NA,yes,NA,33,skyscrapers,None,NA,NA,NA,graduated_college,NA,english,male,NA,NA,In the main trials you will be asked to rephrase something a person said. The utterance will contain a word that is <i>relative</i> and your task is to figure out what it is relative to. <br /> <br /> For example: <br /><br />,1,1567790117501,2,NA,1,NA,NA,comp_class_warmup,NA
469,<i>What do you think Speaker A meant? </i>,NA,The Empire State Building is tall relative to other,NA,12,NA,NA,NA,no,2,NA,barbara,NA,NA,yes,NA,33,skyscrapers,None,NA,NA,NA,graduated_college,NA,english,male,NA,NA,In the main trials you will be asked to rephrase something a person said. The utterance will contain a word that is <i>relative</i> and your task is to figure out what it is relative to. <br /> <br /> For example: <br /><br />,1,1567790117501,3,NA,1,NA,NA,comp_class_warmup,NA
469,<i>What do you think Speaker A meant? </i>,NA,The Empire State Building is tall relative to other,NA,12,NA,NA,NA,no,2,NA,barbara,NA,NA,yes,NA,33,skyscrapers,None,NA,NA,NA,graduated_college,NA,english,male,NA,NA,In the main trials you will be asked to rephrase something a person said. The utterance will contain a word that is <i>relative</i> and your task is to figure out what it is relative to. <br /> <br /> For example: <br /><br />,1,1567790117501,4,NA,1,NA,NA,comp_class_warmup,NA
469,<i>What do you think Speaker A meant? </i>,NA,The Empire State Building is tall relative to other,NA,12,NA,NA,NA,no,2,NA,barbara,NA,NA,yes,NA,33,buildings,None,NA,NA,NA,graduated_college,NA,english,male,NA,NA,In the main trials you will be asked to rephrase something a person said. The utterance will contain a word that is <i>relative</i> and your task is to figure out what it is relative to. <br /> <br /> For example: <br /><br />,1,1567790117501,5,NA,1,NA,NA,comp_class_warmup,NA
469,NA,chihuaua,NA,NA,12,warmup/doberman.png,chihuahua,This is a,no,2,dogs,barbara,doberman,NA,yes,Please label the pictures below.,33,NA,None,NA,warmup/chihuahua.jpg,dogs,graduated_college,NA,english,male,NA,dogs,NA,1,1567790117501,1,This is a,1,These are both,doberman,warmup1,NA
469,NA,chihuahua,NA,NA,12,warmup/doberman.png,chihuahua,This is a,no,2,dogs,barbara,doberman,NA,yes,Please label the pictures below.,33,NA,None,NA,warmup/chihuahua.jpg,dogs,graduated_college,NA,english,male,NA,dogs,NA,1,1567790117501,2,This is a,1,These are both,doberman,warmup1,NA
469,NA,marlin,NA,NA,12,warmup/goldfish.png,swordfish,This is a,no,2,fish,barbara,goldfish,NA,yes,Please label the pictures below.,33,NA,None,NA,warmup/swordfish.jpg,fish,graduated_college,NA,english,male,NA,fish,NA,2,1567790117501,1,This is a,1,These are both,goldfish,warmup1,NA
469,NA,swordfish,NA,NA,12,warmup/goldfish.png,swordfish,This is a,no,2,fish,barbara,goldfish,NA,yes,Please label the pictures below.,33,NA,None,NA,warmup/swordfish.jpg,fish,graduated_college,NA,english,male,NA,fish,NA,2,1567790117501,2,This is a,1,These are both,goldfish,warmup1,NA
469,NA,hummingbird,NA,NA,12,warmup/eagle.jpg,hummingbird,This is a,no,2,birds,barbara,eagle,NA,yes,Please label the pictures below.,33,NA,None,NA,warmup/colibri.jpg,birds,graduated_college,NA,english,male,NA,birds,NA,3,1567790117501,1,This is an,1,These are both,eagle,warmup1,NA
469,What do you think your friend meant?,NA,It is big relative to other,images/bird-parade-eagle.png,12,NA,NA,NA,no,2,birds,barbara,NA,1,yes,"You and your friend see another member of the group <br />(not pictured), and your friend says: <br/><b>That eagle is big.</b>",33,birds,None,0,NA,NA,graduated_college,big,english,male,NA,NA,You and your friend see the following:,1,1567790117501,NA,NA,1,NA,NA,custom_main_text1,predicative
469,What do you think your friend meant?,NA,It is small relative to other,images/fish-parade-basic.png,12,NA,NA,NA,no,2,fish,barbara,NA,0,yes,"You and your friend see another member of the group <br />(not pictured), and your friend says: <br/><b>That one is small.</b>",33,fish,None,1,NA,NA,graduated_college,small,english,male,NA,NA,You and your friend see the following:,2,1567790117501,NA,NA,1,NA,NA,custom_main_text1,predicative
469,What do you think your friend meant?,NA,It is small relative to other,images/dog-parade-chihuahua.png,12,NA,NA,NA,no,2,dogs1,barbara,NA,1,yes,"You and your friend see another member of the group <br />(not pictured), and your friend says: <br/><b>That one is small.</b>",33,dogs,None,1,NA,NA,graduated_college,small,english,male,NA,NA,You and your friend see the following:,3,1567790117501,NA,NA,1,NA,NA,custom_main_text1,predicative
469,NA,oak,NA,NA,12,warmup/bonsai.jpg,redwood or sequoia (choose one),This is a,no,2,trees,barbara,bonsai,NA,yes,Please label the pictures below.,33,NA,None,NA,warmup/sequoia.png,trees,graduated_college,NA,english,male,NA,trees,NA,1,1567790117501,1,This is a,1,These are both,bonsai,warmup2,NA
469,NA,redwood,NA,NA,12,warmup/bonsai.jpg,redwood or sequoia (choose one),This is a,no,2,trees,barbara,bonsai,NA,yes,Please label the pictures below.,33,NA,None,NA,warmup/sequoia.png,trees,graduated_college,NA,english,male,NA,trees,NA,1,1567790117501,2,This is a,1,These are both,bonsai,warmup2,NA
469,NA,dandelion,NA,NA,12,warmup/sunflower.png,dandelion,This is a,no,2,flowers,barbara,sunflower,NA,yes,Please label the pictures below.,33,NA,None,NA,warmup/dandelion.jpg,flowers,graduated_college,NA,english,male,NA,flowers,NA,2,1567790117501,1,This is a,1,These are both,sunflower,warmup2,NA
469,NA,pug,NA,NA,12,warmup/great-dane.jpg,pug,This is a,no,2,dogs,barbara,great dane,NA,yes,Please label the pictures below.,33,NA,None,NA,warmup/pug.jpg,dogs,graduated_college,NA,english,male,NA,dogs,NA,3,1567790117501,1,This is a,1,These are both,dog,warmup2,NA
469,NA,pug,NA,NA,12,warmup/great-dane.jpg,pug,This is a,no,2,dogs,barbara,great dane,NA,yes,Please label the pictures below.,33,NA,None,NA,warmup/pug.jpg,dogs,graduated_college,NA,english,male,NA,dogs,NA,3,1567790117501,2,This is a,1,These are both,great dane,warmup2,NA
469,What do you think your friend meant?,NA,It is small relative to other,images/flower-parade-basic.png,12,NA,NA,NA,no,2,flowers,barbara,NA,0,yes,"You and your friend see another member of the group <br />(not pictured), and your friend says: <br/><b>That one is small.</b>",33,flowers,None,1,NA,NA,graduated_college,small,english,male,NA,NA,You and your friend see the following:,1,1567790117501,NA,NA,1,NA,NA,custom_main_text2,predicative
469,What do you think your friend meant?,NA,It is big relative to other,images/dog-parade-basic2.png,12,NA,NA,NA,no,2,dogs2,barbara,NA,0,yes,"You and your friend see another member of the group <br />(not pictured), and your friend says: <br/><b>That great dane is big.</b>",33,dogs,None,0,NA,NA,graduated_college,big,english,male,NA,NA,You and your friend see the following:,2,1567790117501,NA,NA,1,NA,NA,custom_main_text2,predicative
469,What do you think your friend meant?,NA,It is small relative to other,images/tree-parade-redwood.png,12,NA,NA,NA,no,2,trees,barbara,NA,2,yes,"You and your friend see another member of the group <br />(not pictured), and your friend says: <br/><b>That redwood is small.</b>",33,trees,None,0,NA,NA,graduated_college,small,english,male,NA,NA,You and your friend see the following:,3,1567790117501,NA,NA,1,NA,NA,custom_main_text2,predicative
468,<i>What do you think Speaker A meant? </i>,NA,The Empire State Building is tall relative to other,NA,12,NA,NA,NA,Nope,1,NA,susan,NA,NA,yes,NA,31,buildings,NA,NA,NA,NA,some_college,NA,english,male,NA,NA,In the main trials you will be asked to rephrase something a person said. The utterance will contain a word that is <i>relative</i> and your task is to figure out what it is relative to. <br /> <br /> For example: <br /><br />,1,1567790690390,1,NA,1,NA,NA,comp_class_warmup,NA
468,NA,swordfish,NA,NA,12,warmup/goldfish.png,swordfish,This is a,Nope,1,fish,susan,goldfish,NA,yes,Please label the pictures below.,31,NA,NA,NA,warmup/swordfish.jpg,fish,some_college,NA,english,male,NA,fish,NA,1,1567790690390,1,This is a,1,These are both,goldfish,warmup1,NA
468,NA,hummingbird,NA,NA,12,warmup/eagle.jpg,hummingbird,This is a,Nope,1,birds,susan,eagle,NA,yes,Please label the pictures below.,31,NA,NA,NA,warmup/colibri.jpg,birds,some_college,NA,english,male,NA,birds,NA,2,1567790690390,1,This is an,1,These are both,eagle,warmup1,NA
468,NA,big tree,NA,NA,12,warmup/bonsai.jpg,redwood or sequoia (choose one),This is a,Nope,1,trees,susan,bonsai,NA,yes,Please label the pictures below.,31,NA,NA,NA,warmup/sequoia.png,trees,some_college,NA,english,male,NA,trees,NA,3,1567790690390,1,This is a,1,These are both,small tree,warmup1,NA
468,NA,redwood,NA,NA,12,warmup/bonsai.jpg,redwood or sequoia (choose one),This is a,Nope,1,trees,susan,bonsai,NA,yes,Please label the pictures below.,31,NA,NA,NA,warmup/sequoia.png,trees,some_college,NA,english,male,NA,trees,NA,3,1567790690390,2,This is a,1,These are both,bonsai,warmup1,NA
468,What do you think your friend meant?,NA,It is big relative to other,images/tree-parade-redwood.png,12,NA,NA,NA,Nope,1,trees,susan,NA,1,yes,"You and your friend see another member of the group <br />(not pictured), and your friend says: <br/><b>That one is big.</b>",31,trees,NA,1,NA,NA,some_college,big,english,male,NA,NA,You and your friend see the following:,1,1567790690390,NA,NA,1,NA,NA,custom_main_text1,predicative
468,What do you think your friend meant?,NA,It is big relative to other,images/bird-parade-eagle.png,12,NA,NA,NA,Nope,1,birds,susan,NA,1,yes,"You and your friend see another member of the group <br />(not pictured), and your friend says: <br/><b>That one is big.</b>",31,eagles,NA,1,NA,NA,some_college,big,english,male,NA,NA,You and your friend see the following:,2,1567790690390,NA,NA,1,NA,NA,custom_main_text1,predicative
468,What do you think your friend meant?,NA,It is big relative to other,images/fish-parade-basic.png,12,NA,NA,NA,Nope,1,fish,susan,NA,0,yes,"You and your friend see another member of the group <br />(not pictured), and your friend says: <br/><b>That swordfish is big.</b>",31,fish,NA,0,NA,NA,some_college,big,english,male,NA,NA,You and your friend see the following:,3,1567790690390,NA,NA,1,NA,NA,custom_main_text1,predicative
468,NA,daisy,NA,NA,12,warmup/sunflower.png,dandelion,This is a,Nope,1,flowers,susan,sunflower,NA,yes,Please label the pictures below.,31,NA,NA,NA,warmup/dandelion.jpg,flowrs,some_college,NA,english,male,NA,flowers,NA,1,1567790690390,1,This is a,1,These are both,sunflower,warmup2,NA
468,NA,dandelion,NA,NA,12,warmup/sunflower.png,dandelion,This is a,Nope,1,flowers,susan,sunflower,NA,yes,Please label the pictures below.,31,NA,NA,NA,warmup/dandelion.jpg,flowers,some_college,NA,english,male,NA,flowers,NA,1,1567790690390,2,This is a,1,These are both,sunflower,warmup2,NA
468,NA,pug,NA,NA,12,warmup/great-dane.jpg,pug,This is a,Nope,1,dogs,susan,great dane,NA,yes,Please label the pictures below.,31,NA,NA,NA,warmup/pug.jpg,dogs,some_college,NA,english,male,NA,dogs,NA,2,1567790690390,1,This is a,1,These are both,greatdane,warmup2,NA
468,NA,pug,NA,NA,12,warmup/great-dane.jpg,pug,This is a,Nope,1,dogs,susan,great dane,NA,yes,Please label the pictures below.,31,NA,NA,NA,warmup/pug.jpg,dogs,some_college,NA,english,male,NA,dogs,NA,2,1567790690390,2,This is a,1,These are both,great dane,warmup2,NA
468,NA,chihuahua,NA,NA,12,warmup/doberman.png,chihuahua,This is a,Nope,1,dogs,susan,doberman,NA,yes,Please label the pictures below.,31,NA,NA,NA,warmup/chihuahua.jpg,dogs,some_college,NA,english,male,NA,dogs,NA,3,1567790690390,1,This is a,1,These are both,doberman,warmup2,NA
468,What do you think your friend meant?,NA,It is small relative to other,images/flower-parade-dandelion.png,12,NA,NA,NA,Nope,1,flowers,susan,NA,1,yes,"You and your friend see another member of the group <br />(not pictured), and your friend says: <br/><b>That dandelion is small.</b>",31,dandelions,NA,0,NA,NA,some_college,small,english,male,NA,NA,You and your friend see the following:,1,1567790690390,NA,NA,1,NA,NA,custom_main_text2,predicative
468,What do you think your friend meant?,NA,It is small relative to other,images/dog-parade-basic.png,12,NA,NA,NA,Nope,1,dogs1,susan,NA,0,yes,"You and your friend see another member of the group <br />(not pictured), and your friend says: <br/><b>That one is small.</b>",31,dogs,NA,1,NA,NA,some_college,small,english,male,NA,NA,You and your friend see the following:,2,1567790690390,NA,NA,1,NA,NA,custom_main_text2,predicative
468,What do you think your friend meant?,NA,It is small relative to other,images/dog-parade-basic2.png,12,NA,NA,NA,Nope,1,dogs2,susan,NA,0,yes,"You and your friend see another member of the group <br />(not pictured), and your friend says: <br/><b>That pug is small.</b>",31,dogs,NA,0,NA,NA,some_college,small,english,male,NA,NA,You and your friend see the following:,3,1567790690390,NA,NA,1,NA,NA,custom_main_text2,predicative
467,<i>What do you think Speaker A meant? </i>,NA,The Empire State Building is tall relative to other,NA,12,NA,NA,NA,No,2,NA,mary,NA,NA,yes,NA,27,buildings,It was a fun experiment!,NA,NA,NA,some_college,NA,English,female,NA,NA,In the main trials you will be asked to rephrase something a person said. The utterance will contain a word that is <i>relative</i> and your task is to figure out what it is relative to. <br /> <br /> For example: <br /><br />,1,1567790815291,1,NA,1,NA,NA,comp_class_warmup,NA
467,NA,chihuahua,NA,NA,12,warmup/doberman.png,chihuahua,This is a,No,2,dogs,mary,doberman,NA,yes,Please label the pictures below.,27,NA,It was a fun experiment!,NA,warmup/chihuahua.jpg,dogs,some_college,NA,English,female,NA,dogs,NA,1,1567790815291,1,This is a,1,These are both,doberman,warmup1,NA
467,NA,pug,NA,NA,12,warmup/great-dane.jpg,pug,This is a,No,2,dogs,mary,great dane,NA,yes,Please label the pictures below.,27,NA,It was a fun experiment!,NA,warmup/pug.jpg,dogs,some_college,NA,English,female,NA,dogs,NA,2,1567790815291,1,This is a,1,These are both,great dane,warmup1,NA
467,NA,swordfish,NA,NA,12,warmup/goldfish.png,swordfish,This is a,No,2,fish,mary,goldfish,NA,yes,Please label the pictures below.,27,NA,It was a fun experiment!,NA,warmup/swordfish.jpg,fish,some_college,NA,English,female,NA,fish,NA,3,1567790815291,1,This is a,1,These are both,goldfish,warmup1,NA
467,What do you think your friend meant?,NA,It is big relative to other,images/fish-parade-basic.png,12,NA,NA,NA,No,2,fish,mary,NA,0,yes,"You and your friend see another member of the group <br />(not pictured), and your friend says: <br/><b>That one is big.</b>",27,fishes,It was a fun experiment!,1,NA,NA,some_college,big,English,female,NA,NA,You and your friend see the following:,1,1567790815291,NA,NA,1,NA,NA,custom_main_text1,predicative
467,What do you think your friend meant?,NA,It is big relative to other,images/dog-parade-pug.png,12,NA,NA,NA,No,2,dogs2,mary,NA,2,yes,"You and your friend see another member of the group <br />(not pictured), and your friend says: <br/><b>That pug is big.</b>",27,pugs,It was a fun experiment!,0,NA,NA,some_college,big,English,female,NA,NA,You and your friend see the following:,2,1567790815291,NA,NA,1,NA,NA,custom_main_text1,predicative
467,What do you think your friend meant?,NA,It is small relative to other,images/dog-parade-chihuahua.png,12,NA,NA,NA,No,2,dogs1,mary,NA,1,yes,"You and your friend see another member of the group <br />(not pictured), and your friend says: <br/><b>That one is small.</b>",27,chihuahuas,It was a fun experiment!,1,NA,NA,some_college,small,English,female,NA,NA,You and your friend see the following:,3,1567790815291,NA,NA,1,NA,NA,custom_main_text1,predicative
467,NA,tall tree,NA,NA,12,warmup/bonsai.jpg,redwood or sequoia (choose one),This is a,No,2,trees,mary,bonsai,NA,yes,Please label the pictures below.,27,NA,It was a fun experiment!,NA,warmup/sequoia.png,trees,some_college,NA,English,female,NA,trees,NA,1,1567790815291,1,This is a,1,These are both,small tree,warmup2,NA
467,NA,redwood,NA,NA,12,warmup/bonsai.jpg,redwood or sequoia (choose one),This is a,No,2,trees,mary,bonsai,NA,yes,Please label the pictures below.,27,NA,It was a fun experiment!,NA,warmup/sequoia.png,trees,some_college,NA,English,female,NA,trees,NA,1,1567790815291,2,This is a,1,These are both,bonsai,warmup2,NA
467,NA,hummingbird,NA,NA,12,warmup/eagle.jpg,hummingbird,This is a,No,2,birds,mary,eagle,NA,yes,Please label the pictures below.,27,NA,It was a fun experiment!,NA,warmup/colibri.jpg,birds,some_college,NA,English,female,NA,birds,NA,2,1567790815291,1,This is an,1,These are both,eagle,warmup2,NA
467,NA,dandelion,NA,NA,12,warmup/sunflower.png,dandelion,This is a,No,2,flowers,mary,sunflower,NA,yes,Please label the pictures below.,27,NA,It was a fun experiment!,NA,warmup/dandelion.jpg,flowers,some_college,NA,English,female,NA,flowers,NA,3,1567790815291,1,This is a,1,These are both,sunflower,warmup2,NA
467,What do you think your friend meant?,NA,It is big relative to other,images/tree-parade-bonsai.png,12,NA,NA,NA,No,2,trees,mary,NA,2,yes,"You and your friend see another member of the group <br />(not pictured), and your friend says: <br/><b>That one is big.</b>",27,bonsais,It was a fun experiment!,1,NA,NA,some_college,big,English,female,NA,NA,You and your friend see the following:,1,1567790815291,NA,NA,1,NA,NA,custom_main_text2,predicative
467,What do you think your friend meant?,NA,It is big relative to other,images/flower-parade-basic.png,12,NA,NA,NA,No,2,flowers,mary,NA,0,yes,"You and your friend see another member of the group <br />(not pictured), and your friend says: <br/><b>That sunflower is big.</b>",27,flowers,It was a fun experiment!,0,NA,NA,some_college,big,English,female,NA,NA,You and your friend see the following:,2,1567790815291,NA,NA,1,NA,NA,custom_main_text2,predicative
467,What do you think your friend meant?,NA,It is big relative to other,images/bird-parade-basic.png,12,NA,NA,NA,No,2,birds,mary,NA,0,yes,"You and your friend see another member of the group <br />(not pictured), and your friend says: <br/><b>That eagle is big.</b>",27,birds,It was a fun experiment!,0,NA,NA,some_college,big,English,female,NA,NA,You and your friend see the following:,3,1567790815291,NA,NA,1,NA,NA,custom_main_text2,predicative
466,<i>What do you think Speaker A meant? </i>,NA,The Empire State Building is tall relative to other,NA,12,NA,NA,NA,NA,1,NA,Jessica,NA,NA,yes,NA,30,buildings,NA,NA,NA,NA,graduated_college,NA,English,male,NA,NA,In the main trials you will be asked to rephrase something a person said. The utterance will contain a word that is <i>relative</i> and your task is to figure out what it is relative to. <br /> <br /> For example: <br /><br />,1,1567790211965,1,NA,1.1,NA,NA,comp_class_warmup,NA
466,NA,small dog,NA,NA,12,warmup/great-dane.jpg,pug,This is a,NA,1,dogs,Jessica,great dane,NA,yes,Please label the pictures below.,30,NA,NA,NA,warmup/pug.jpg,dogs,graduated_college,NA,English,male,NA,dogs,NA,1,1567790211965,1,This is a,1.1,These are both,big dog,warmup1,NA
466,NA,pug,NA,NA,12,warmup/great-dane.jpg,pug,This is a,NA,1,dogs,Jessica,great dane,NA,yes,Please label the pictures below.,30,NA,NA,NA,warmup/pug.jpg,dogs,graduated_college,NA,English,male,NA,dogs,NA,1,1567790211965,2,This is a,1.1,These are both,great dane,warmup1,NA
466,NA,swordfish,NA,NA,12,warmup/goldfish.png,swordfish,This is a,NA,1,fish,Jessica,goldfish,NA,yes,Please label the pictures below.,30,NA,NA,NA,warmup/swordfish.jpg,fish,graduated_college,NA,English,male,NA,fish,NA,2,1567790211965,1,This is a,1.1,These are both,goldfish,warmup1,NA
466,NA,redwood,NA,NA,12,warmup/bonsai.jpg,redwood or sequoia (choose one),This is a,NA,1,trees,Jessica,bonsai,NA,yes,Please label the pictures below.,30,NA,NA,NA,warmup/sequoia.png,trees,graduated_college,NA,English,male,NA,trees,NA,3,1567790211965,1,This is a,1.1,These are both,bonzi,warmup1,NA
466,NA,redwood,NA,NA,12,warmup/bonsai.jpg,redwood or sequoia (choose one),This is a,NA,1,trees,Jessica,bonsai,NA,yes,Please label the pictures below.,30,NA,NA,NA,warmup/sequoia.png,trees,graduated_college,NA,English,male,NA,trees,NA,3,1567790211965,2,This is a,1.1,These are both,bonsai,warmup1,NA
466,What do you think your friend meant?,NA,It is big relative to other,images/dog-parade-basic2.png,12,NA,NA,NA,NA,1,dogs2,Jessica,NA,0,yes,"You and your friend see another member of the group <br />(not pictured), and your friend says: <br/><b>That one is big.</b>",30,dogs,NA,1,NA,NA,graduated_college,big,English,male,NA,NA,You and your friend see the following:,1,1567790211965,NA,NA,1.1,NA,NA,custom_main_text1,predicative
466,What do you think your friend meant?,NA,It is small relative to other,images/tree-parade-basic.png,12,NA,NA,NA,NA,1,trees,Jessica,NA,0,yes,"You and your friend see another member of the group <br />(not pictured), and your friend says: <br/><b>That bonsai is small.</b>",30,trees,NA,0,NA,NA,graduated_college,small,English,male,NA,NA,You and your friend see the following:,2,1567790211965,NA,NA,1.1,NA,NA,custom_main_text1,predicative
466,What do you think your friend meant?,NA,It is small relative to other,images/fish-parade-goldfish.png,12,NA,NA,NA,NA,1,fish,Jessica,NA,1,yes,"You and your friend see another member of the group <br />(not pictured), and your friend says: <br/><b>That goldfish is small.</b>",30,goldfish,NA,0,NA,NA,graduated_college,small,English,male,NA,NA,You and your friend see the following:,3,1567790211965,NA,NA,1.1,NA,NA,custom_main_text1,predicative
466,NA,weed,NA,NA,12,warmup/sunflower.png,dandelion,This is a,NA,1,flowers,Jessica,sunflower,NA,yes,Please label the pictures below.,30,NA,NA,NA,warmup/dandelion.jpg,plants,graduated_college,NA,English,male,NA,flowers,NA,1,1567790211965,1,This is a,1.1,These are both,sunflower,warmup2,NA
