submission_id,question,response1,sentence_left,context_picture,pic,experiment_id,picture2,correct1,question1,problems,enjoyment,item,botresponse,trials,correct2,pic_spec,understand,text,condition,sentence,age,response,comments,ref_spec,picture1,response3,education,target_size,name,languages,sex,RT,correct3,context,trial_number,startTime,attempts,question3,fairprice,question2,response2,correct,adj_cond,trial_name,utterance
625,<i>What do you think Speaker A meant? </i>,NA,The Empire State Building is tall relative to other,NA,NA,17,NA,NA,NA,no,1,NA,sarah,1,NA,NA,yes,NA,NA,"<b> Speaker A: ""The Empire State Building is tall.""</b>",31,buildings,NA,NA,NA,NA,graduated_college,NA,comp_class_warmup,English,male,NA,NA,In the main trials you will be asked to rephrase something a person said. The utterance will contain a word that is <i>relative</i> and your task is to figure out what it is relative to. <br /> <br /> For example: <br /><br />,1,1571840706561,1,NA,1,NA,NA,"buildings, skyscrapers, houses, constructions (choose one)",NA,comp_class_warmup,NA
625,NA,dandelion,NA,NA,NA,17,warmup/sunflower.png,dandelion,This is a,no,1,flowers,sarah,NA,sunflower,NA,yes,Please label the pictures below.,NA,NA,31,NA,NA,NA,warmup/dandelion.jpg,flowers,graduated_college,NA,NA,English,male,NA,flowers,NA,1,1571840706561,1,This is a,1,These are both,sunflower,NA,NA,warmup1,NA
625,NA,pug,NA,NA,NA,17,warmup/great-dane.jpg,pug,This is a,no,1,dogs,sarah,NA,great dane,NA,yes,Please label the pictures below.,NA,NA,31,NA,NA,NA,warmup/pug.jpg,dogs,graduated_college,NA,NA,English,male,NA,dogs,NA,2,1571840706561,1,This is a,1,These are both,bigger dog,NA,NA,warmup1,NA
625,NA,pug,NA,NA,NA,17,warmup/great-dane.jpg,pug,This is a,no,1,dogs,sarah,NA,great dane,NA,yes,Please label the pictures below.,NA,NA,31,NA,NA,NA,warmup/pug.jpg,dogs,graduated_college,NA,NA,English,male,NA,dogs,NA,2,1571840706561,2,This is a,1,These are both,great dane,NA,NA,warmup1,NA
625,NA,marlin,NA,NA,NA,17,warmup/goldfish.png,swordfish,This is a,no,1,fish,sarah,NA,goldfish,NA,yes,Please label the pictures below.,NA,NA,31,NA,NA,NA,warmup/swordfish.jpg,fish,graduated_college,NA,NA,English,male,NA,fish,NA,3,1571840706561,1,This is a,1,These are both,goldfish,NA,NA,warmup1,NA
625,NA,swordfish,NA,NA,NA,17,warmup/goldfish.png,swordfish,This is a,no,1,fish,sarah,NA,goldfish,NA,yes,Please label the pictures below.,NA,NA,31,NA,NA,NA,warmup/swordfish.jpg,fish,graduated_college,NA,NA,English,male,NA,fish,NA,3,1571840706561,2,This is a,1,These are both,goldfish,NA,NA,warmup1,NA
625,What do you think your friend meant?,NA,It is small relative to other,images/fish-parade-goldfish.png,images/goldfish.png,17,NA,NA,NA,no,1,fish,sarah,NA,NA,1,yes,"Your friend runs far ahead of you, and you see him in the distance:",predicative,NA,31,goldfish,NA,1,NA,NA,graduated_college,small,NA,English,male,NA,NA,You and your friend see the following:,1,1571840706561,NA,NA,1,NA,NA,NA,congr,custom_main_text1,Your friend says: <br/><b>That goldfish is small.</b>
625,What do you think your friend meant?,NA,It is small relative to other,images/flower-parade-basic.png,images/dandelion.png,17,NA,NA,NA,no,1,flowers,sarah,NA,NA,0,yes,"Your friend runs far ahead of you, and you see him in the distance:",predicative,NA,31,flowers,NA,1,NA,NA,graduated_college,small,NA,English,male,NA,NA,You and your friend see the following:,2,1571840706561,NA,NA,1,NA,NA,NA,basic,custom_main_text1,Your friend says: <br/><b>That dandelion is small.</b>
625,What do you think your friend meant?,NA,It is big relative to other,images/dog-parade-great-dane.png,images/great-dane.png,17,NA,NA,NA,no,1,dogs2,sarah,NA,NA,1,yes,"Your friend runs far ahead of you, and you see him in the distance:",predicative,NA,31,dogs,NA,1,NA,NA,graduated_college,big,NA,English,male,NA,NA,You and your friend see the following:,3,1571840706561,NA,NA,1,NA,NA,NA,congr,custom_main_text1,Your friend says: <br/><b>That great dane is big.</b>
625,NA,redwood,NA,NA,NA,17,warmup/bonsai.jpg,redwood or sequoia (choose one),This is a,no,1,trees,sarah,NA,bonsai,NA,yes,Please label the pictures below.,NA,NA,31,NA,NA,NA,warmup/sequoia.png,trees,graduated_college,NA,NA,English,male,NA,trees,NA,1,1571840706561,1,This is a,1,These are both,plant,NA,NA,warmup2,NA
625,NA,redwood,NA,NA,NA,17,warmup/bonsai.jpg,redwood or sequoia (choose one),This is a,no,1,trees,sarah,NA,bonsai,NA,yes,Please label the pictures below.,NA,NA,31,NA,NA,NA,warmup/sequoia.png,trees,graduated_college,NA,NA,English,male,NA,trees,NA,1,1571840706561,2,This is a,1,These are both,bonsai,NA,NA,warmup2,NA
625,NA,chihuahua,NA,NA,NA,17,warmup/doberman.png,chihuahua,This is a,no,1,dogs,sarah,NA,doberman,NA,yes,Please label the pictures below.,NA,NA,31,NA,NA,NA,warmup/chihuahua.jpg,dogs,graduated_college,NA,NA,English,male,NA,dogs,NA,2,1571840706561,1,This is a,1,These are both,rottweiler,NA,NA,warmup2,NA
625,NA,chihuahua,NA,NA,NA,17,warmup/doberman.png,chihuahua,This is a,no,1,dogs,sarah,NA,doberman,NA,yes,Please label the pictures below.,NA,NA,31,NA,NA,NA,warmup/chihuahua.jpg,dogs,graduated_college,NA,NA,English,male,NA,dogs,NA,2,1571840706561,2,This is a,1,These are both,doberman,NA,NA,warmup2,NA
625,NA,hummingbird,NA,NA,NA,17,warmup/eagle.jpg,hummingbird,This is a,no,1,birds,sarah,NA,eagle,NA,yes,Please label the pictures below.,NA,NA,31,NA,NA,NA,warmup/colibri.jpg,birds,graduated_college,NA,NA,English,male,NA,birds,NA,3,1571840706561,1,This is an,1,These are both,eagles,NA,NA,warmup2,NA
625,NA,hummingbird,NA,NA,NA,17,warmup/eagle.jpg,hummingbird,This is a,no,1,birds,sarah,NA,eagle,NA,yes,Please label the pictures below.,NA,NA,31,NA,NA,NA,warmup/colibri.jpg,birds,graduated_college,NA,NA,English,male,NA,birds,NA,3,1571840706561,2,This is an,1,These are both,eagle,NA,NA,warmup2,NA
625,What do you think your friend meant?,NA,It is big relative to other,images/dog-parade-basic.png,images/doberman.png,17,NA,NA,NA,no,1,dogs1,sarah,NA,NA,0,yes,"Your friend runs far ahead of you, and you see him in the distance:",predicative,NA,31,dogs,NA,1,NA,NA,graduated_college,big,NA,English,male,NA,NA,You and your friend see the following:,1,1571840706561,NA,NA,1,NA,NA,NA,basic,custom_main_text2,Your friend says: <br/><b>That doberman is big.</b>
625,What do you think your friend meant?,NA,It is small relative to other,images/bird-parade-basic.png,images/hummingbird.png,17,NA,NA,NA,no,1,birds,sarah,NA,NA,0,yes,"Your friend runs far ahead of you, and you see him in the distance:",predicative,NA,31,birds,NA,1,NA,NA,graduated_college,small,NA,English,male,NA,NA,You and your friend see the following:,2,1571840706561,NA,NA,1,NA,NA,NA,basic,custom_main_text2,Your friend says: <br/><b>That hummingbird is small.</b>
625,What do you think your friend meant?,NA,It is big relative to other,images/tree-parade-redwood.png,images/redwood.png,17,NA,NA,NA,no,1,trees,sarah,NA,NA,1,yes,"Your friend runs far ahead of you, and you see him in the distance:",predicative,NA,31,trees,NA,1,NA,NA,graduated_college,big,NA,English,male,NA,NA,You and your friend see the following:,3,1571840706561,NA,NA,1,NA,NA,NA,congr,custom_main_text2,Your friend says: <br/><b>That redwood is big.</b>
624,<i>What do you think Speaker A meant? </i>,NA,The Empire State Building is tall relative to other,NA,NA,17,NA,NA,NA,no,1,NA,Mary,1,NA,NA,yes,NA,NA,"<b> Speaker A: ""The Empire State Building is tall.""</b>",25,buildings,"I enjoyed the experiment, it actually made me stop and think about what the other person would have meant.  The only thing I did not really like were the pictures and example used. It was really hard to tell that was a pug, I thought it was a bulldog etc.",NA,NA,NA,graduated_college,NA,comp_class_warmup,English,female,NA,NA,In the main trials you will be asked to rephrase something a person said. The utterance will contain a word that is <i>relative</i> and your task is to figure out what it is relative to. <br /> <br /> For example: <br /><br />,1,1571840483936,1,NA,1,NA,NA,"buildings, skyscrapers, houses, constructions (choose one)",NA,comp_class_warmup,NA
624,NA,dog,NA,NA,NA,17,warmup/doberman.png,chihuahua,This is a,no,1,dogs,Mary,NA,doberman,NA,yes,Please label the pictures below.,NA,NA,25,NA,"I enjoyed the experiment, it actually made me stop and think about what the other person would have meant.  The only thing I did not really like were the pictures and example used. It was really hard to tell that was a pug, I thought it was a bulldog etc.",NA,warmup/chihuahua.jpg,dogs,graduated_college,NA,NA,English,female,NA,dogs,NA,1,1571840483936,1,This is a,1,These are both,dog,NA,NA,warmup1,NA
624,NA,chihuahua,NA,NA,NA,17,warmup/doberman.png,chihuahua,This is a,no,1,dogs,Mary,NA,doberman,NA,yes,Please label the pictures below.,NA,NA,25,NA,"I enjoyed the experiment, it actually made me stop and think about what the other person would have meant.  The only thing I did not really like were the pictures and example used. It was really hard to tell that was a pug, I thought it was a bulldog etc.",NA,warmup/chihuahua.jpg,dogs,graduated_college,NA,NA,English,female,NA,dogs,NA,1,1571840483936,2,This is a,1,These are both,doberman,NA,NA,warmup1,NA
624,NA,shark,NA,NA,NA,17,warmup/goldfish.png,swordfish,This is a,no,1,fish,Mary,NA,goldfish,NA,yes,Please label the pictures below.,NA,NA,25,NA,"I enjoyed the experiment, it actually made me stop and think about what the other person would have meant.  The only thing I did not really like were the pictures and example used. It was really hard to tell that was a pug, I thought it was a bulldog etc.",NA,warmup/swordfish.jpg,fish,graduated_college,NA,NA,English,female,NA,fish,NA,2,1571840483936,1,This is a,1,These are both,goldfish,NA,NA,warmup1,NA
624,NA,swordfish,NA,NA,NA,17,warmup/goldfish.png,swordfish,This is a,no,1,fish,Mary,NA,goldfish,NA,yes,Please label the pictures below.,NA,NA,25,NA,"I enjoyed the experiment, it actually made me stop and think about what the other person would have meant.  The only thing I did not really like were the pictures and example used. It was really hard to tell that was a pug, I thought it was a bulldog etc.",NA,warmup/swordfish.jpg,fish,graduated_college,NA,NA,English,female,NA,fish,NA,2,1571840483936,2,This is a,1,These are both,goldfish,NA,NA,warmup1,NA
624,NA,hummingbird,NA,NA,NA,17,warmup/eagle.jpg,hummingbird,This is a,no,1,birds,Mary,NA,eagle,NA,yes,Please label the pictures below.,NA,NA,25,NA,"I enjoyed the experiment, it actually made me stop and think about what the other person would have meant.  The only thing I did not really like were the pictures and example used. It was really hard to tell that was a pug, I thought it was a bulldog etc.",NA,warmup/colibri.jpg,birds,graduated_college,NA,NA,English,female,NA,birds,NA,3,1571840483936,1,This is an,1,These are both,eagle,NA,NA,warmup1,NA
624,What do you think your friend meant?,NA,It is big relative to other,images/dog-parade-basic.png,images/doberman.png,17,NA,NA,NA,no,1,dogs1,Mary,NA,NA,0,yes,"Your friend runs far ahead of you, and you see him in the distance:",predicative,NA,25,dobermans,"I enjoyed the experiment, it actually made me stop and think about what the other person would have meant.  The only thing I did not really like were the pictures and example used. It was really hard to tell that was a pug, I thought it was a bulldog etc.",1,NA,NA,graduated_college,big,NA,English,female,NA,NA,You and your friend see the following:,1,1571840483936,NA,NA,1,NA,NA,NA,basic,custom_main_text1,Your friend says: <br/><b>That doberman is big.</b>
624,What do you think your friend meant?,NA,It is small relative to other,images/bird-parade-basic.png,images/hummingbird.png,17,NA,NA,NA,no,1,birds,Mary,NA,NA,0,yes,"Your friend runs far ahead of you, and you see him in the distance:",predicative,NA,25,hummingbirds,"I enjoyed the experiment, it actually made me stop and think about what the other person would have meant.  The only thing I did not really like were the pictures and example used. It was really hard to tell that was a pug, I thought it was a bulldog etc.",1,NA,NA,graduated_college,small,NA,English,female,NA,NA,You and your friend see the following:,2,1571840483936,NA,NA,1,NA,NA,NA,basic,custom_main_text1,Your friend says: <br/><b>That hummingbird is small.</b>
624,What do you think your friend meant?,NA,It is big relative to other,images/fish-parade-swordfish.png,images/swordfish.png,17,NA,NA,NA,no,1,fish,Mary,NA,NA,1,yes,"Your friend runs far ahead of you, and you see him in the distance:",predicative,NA,25,swordfish,"I enjoyed the experiment, it actually made me stop and think about what the other person would have meant.  The only thing I did not really like were the pictures and example used. It was really hard to tell that was a pug, I thought it was a bulldog etc.",1,NA,NA,graduated_college,big,NA,English,female,NA,NA,You and your friend see the following:,3,1571840483936,NA,NA,1,NA,NA,NA,congr,custom_main_text1,Your friend says: <br/><b>That swordfish is big.</b>
624,NA,daisy,NA,NA,NA,17,warmup/sunflower.png,dandelion,This is a,no,1,flowers,Mary,NA,sunflower,NA,yes,Please label the pictures below.,NA,NA,25,NA,"I enjoyed the experiment, it actually made me stop and think about what the other person would have meant.  The only thing I did not really like were the pictures and example used. It was really hard to tell that was a pug, I thought it was a bulldog etc.",NA,warmup/dandelion.jpg,flowers,graduated_college,NA,NA,English,female,NA,flowers,NA,1,1571840483936,1,This is a,1,These are both,sunflower,NA,NA,warmup2,NA
624,NA,dandelion,NA,NA,NA,17,warmup/sunflower.png,dandelion,This is a,no,1,flowers,Mary,NA,sunflower,NA,yes,Please label the pictures below.,NA,NA,25,NA,"I enjoyed the experiment, it actually made me stop and think about what the other person would have meant.  The only thing I did not really like were the pictures and example used. It was really hard to tell that was a pug, I thought it was a bulldog etc.",NA,warmup/dandelion.jpg,flowers,graduated_college,NA,NA,English,female,NA,flowers,NA,1,1571840483936,2,This is a,1,These are both,sunflower,NA,NA,warmup2,NA
624,NA,oak,NA,NA,NA,17,warmup/bonsai.jpg,redwood or sequoia (choose one),This is a,no,1,trees,Mary,NA,bonsai,NA,yes,Please label the pictures below.,NA,NA,25,NA,"I enjoyed the experiment, it actually made me stop and think about what the other person would have meant.  The only thing I did not really like were the pictures and example used. It was really hard to tell that was a pug, I thought it was a bulldog etc.",NA,warmup/sequoia.png,trees,graduated_college,NA,NA,English,female,NA,trees,NA,2,1571840483936,1,This is a,1,These are both,bonsai,NA,NA,warmup2,NA
624,NA,redwood,NA,NA,NA,17,warmup/bonsai.jpg,redwood or sequoia (choose one),This is a,no,1,trees,Mary,NA,bonsai,NA,yes,Please label the pictures below.,NA,NA,25,NA,"I enjoyed the experiment, it actually made me stop and think about what the other person would have meant.  The only thing I did not really like were the pictures and example used. It was really hard to tell that was a pug, I thought it was a bulldog etc.",NA,warmup/sequoia.png,trees,graduated_college,NA,NA,English,female,NA,trees,NA,2,1571840483936,2,This is a,1,These are both,bonsai,NA,NA,warmup2,NA
624,NA,bulldog,NA,NA,NA,17,warmup/great-dane.jpg,pug,This is a,no,1,dogs,Mary,NA,great dane,NA,yes,Please label the pictures below.,NA,NA,25,NA,"I enjoyed the experiment, it actually made me stop and think about what the other person would have meant.  The only thing I did not really like were the pictures and example used. It was really hard to tell that was a pug, I thought it was a bulldog etc.",NA,warmup/pug.jpg,dogs,graduated_college,NA,NA,English,female,NA,dogs,NA,3,1571840483936,1,This is a,1,These are both,great dane,NA,NA,warmup2,NA
624,NA,pug,NA,NA,NA,17,warmup/great-dane.jpg,pug,This is a,no,1,dogs,Mary,NA,great dane,NA,yes,Please label the pictures below.,NA,NA,25,NA,"I enjoyed the experiment, it actually made me stop and think about what the other person would have meant.  The only thing I did not really like were the pictures and example used. It was really hard to tell that was a pug, I thought it was a bulldog etc.",NA,warmup/pug.jpg,dogs,graduated_college,NA,NA,English,female,NA,dogs,NA,3,1571840483936,2,This is a,1,These are both,great dane,NA,NA,warmup2,NA
624,What do you think your friend meant?,NA,It is small relative to other,images/tree-parade-basic.png,images/bonsai.png,17,NA,NA,NA,no,1,trees,Mary,NA,NA,0,yes,"Your friend runs far ahead of you, and you see him in the distance:",predicative,NA,25,bonsais,"I enjoyed the experiment, it actually made me stop and think about what the other person would have meant.  The only thing I did not really like were the pictures and example used. It was really hard to tell that was a pug, I thought it was a bulldog etc.",1,NA,NA,graduated_college,small,NA,English,female,NA,NA,You and your friend see the following:,1,1571840483936,NA,NA,1,NA,NA,NA,basic,custom_main_text2,Your friend says: <br/><b>That bonsai is small.</b>
624,What do you think your friend meant?,NA,It is small relative to other,images/flower-parade-dandelion.png,images/dandelion.png,17,NA,NA,NA,no,1,flowers,Mary,NA,NA,1,yes,"Your friend runs far ahead of you, and you see him in the distance:",predicative,NA,25,dandelions,"I enjoyed the experiment, it actually made me stop and think about what the other person would have meant.  The only thing I did not really like were the pictures and example used. It was really hard to tell that was a pug, I thought it was a bulldog etc.",1,NA,NA,graduated_college,small,NA,English,female,NA,NA,You and your friend see the following:,2,1571840483936,NA,NA,1,NA,NA,NA,congr,custom_main_text2,Your friend says: <br/><b>That dandelion is small.</b>
624,What do you think your friend meant?,NA,It is big relative to other,images/dog-parade-great-dane.png,images/great-dane.png,17,NA,NA,NA,no,1,dogs2,Mary,NA,NA,1,yes,"Your friend runs far ahead of you, and you see him in the distance:",predicative,NA,25,great danes,"I enjoyed the experiment, it actually made me stop and think about what the other person would have meant.  The only thing I did not really like were the pictures and example used. It was really hard to tell that was a pug, I thought it was a bulldog etc.",1,NA,NA,graduated_college,big,NA,English,female,NA,NA,You and your friend see the following:,3,1571840483936,NA,NA,1,NA,NA,NA,congr,custom_main_text2,Your friend says: <br/><b>That great dane is big.</b>
623,<i>What do you think Speaker A meant? </i>,NA,The Empire State Building is tall relative to other,NA,NA,17,NA,NA,NA,NA,2,NA,jessica,1,NA,NA,yes,NA,NA,"<b> Speaker A: ""The Empire State Building is tall.""</b>",32,buildings,NA,NA,NA,NA,graduated_college,NA,comp_class_warmup,english,female,NA,NA,In the main trials you will be asked to rephrase something a person said. The utterance will contain a word that is <i>relative</i> and your task is to figure out what it is relative to. <br /> <br /> For example: <br /><br />,1,1571840091925,1,NA,1.5,NA,NA,"buildings, skyscrapers, houses, constructions (choose one)",NA,comp_class_warmup,NA
623,NA,hummingbird,NA,NA,NA,17,warmup/eagle.jpg,hummingbird,This is a,NA,2,birds,jessica,NA,eagle,NA,yes,Please label the pictures below.,NA,NA,32,NA,NA,NA,warmup/colibri.jpg,birds,graduated_college,NA,NA,english,female,NA,birds,NA,1,1571840091925,1,This is an,1.5,These are both,eagle,NA,NA,warmup1,NA
623,NA,dandelion,NA,NA,NA,17,warmup/sunflower.png,dandelion,This is a,NA,2,flowers,jessica,NA,sunflower,NA,yes,Please label the pictures below.,NA,NA,32,NA,NA,NA,warmup/dandelion.jpg,plants,graduated_college,NA,NA,english,female,NA,flowers,NA,2,1571840091925,1,This is a,1.5,These are both,sunflower,NA,NA,warmup1,NA
623,NA,dandelion,NA,NA,NA,17,warmup/sunflower.png,dandelion,This is a,NA,2,flowers,jessica,NA,sunflower,NA,yes,Please label the pictures below.,NA,NA,32,NA,NA,NA,warmup/dandelion.jpg,flower,graduated_college,NA,NA,english,female,NA,flowers,NA,2,1571840091925,2,This is a,1.5,These are both,sunflower,NA,NA,warmup1,NA
623,NA,dandelion,NA,NA,NA,17,warmup/sunflower.png,dandelion,This is a,NA,2,flowers,jessica,NA,sunflower,NA,yes,Please label the pictures below.,NA,NA,32,NA,NA,NA,warmup/dandelion.jpg,flowers,graduated_college,NA,NA,english,female,NA,flowers,NA,2,1571840091925,3,This is a,1.5,These are both,sunflower,NA,NA,warmup1,NA
623,NA,pug,NA,NA,NA,17,warmup/great-dane.jpg,pug,This is a,NA,2,dogs,jessica,NA,great dane,NA,yes,Please label the pictures below.,NA,NA,32,NA,NA,NA,warmup/pug.jpg,dogs,graduated_college,NA,NA,english,female,NA,dogs,NA,3,1571840091925,1,This is a,1.5,These are both,great dane,NA,NA,warmup1,NA
623,What do you think your friend meant?,NA,It is small relative to other,images/dog-parade-pug.png,images/pug.png,17,NA,NA,NA,NA,2,dogs2,jessica,NA,NA,1,yes,"Your friend runs far ahead of you, and you see him in the distance:",predicative,NA,32,pugs,NA,1,NA,NA,graduated_college,small,NA,english,female,NA,NA,You and your friend see the following:,1,1571840091925,NA,NA,1.5,NA,NA,NA,congr,custom_main_text1,Your friend says: <br/><b>That pug is small.</b>
623,What do you think your friend meant?,NA,It is small relative to other,images/flower-parade-dandelion.png,images/dandelion.png,17,NA,NA,NA,NA,2,flowers,jessica,NA,NA,1,yes,"Your friend runs far ahead of you, and you see him in the distance:",predicative,NA,32,dandelions,NA,1,NA,NA,graduated_college,small,NA,english,female,NA,NA,You and your friend see the following:,2,1571840091925,NA,NA,1.5,NA,NA,NA,congr,custom_main_text1,Your friend says: <br/><b>That dandelion is small.</b>
623,What do you think your friend meant?,NA,It is big relative to other,images/bird-parade-basic.png,images/eagle.png,17,NA,NA,NA,NA,2,birds,jessica,NA,NA,0,yes,"Your friend runs far ahead of you, and you see him in the distance:",predicative,NA,32,birds,NA,1,NA,NA,graduated_college,big,NA,english,female,NA,NA,You and your friend see the following:,3,1571840091925,NA,NA,1.5,NA,NA,NA,basic,custom_main_text1,Your friend says: <br/><b>That eagle is big.</b>
623,NA,pine,NA,NA,NA,17,warmup/bonsai.jpg,redwood or sequoia (choose one),This is a,NA,2,trees,jessica,NA,bonsai,NA,yes,Please label the pictures below.,NA,NA,32,NA,NA,NA,warmup/sequoia.png,trees,graduated_college,NA,NA,english,female,NA,trees,NA,1,1571840091925,1,This is a,1.5,These are both,bosai,NA,NA,warmup2,NA
623,NA,redwood,NA,NA,NA,17,warmup/bonsai.jpg,redwood or sequoia (choose one),This is a,NA,2,trees,jessica,NA,bonsai,NA,yes,Please label the pictures below.,NA,NA,32,NA,NA,NA,warmup/sequoia.png,trees,graduated_college,NA,NA,english,female,NA,trees,NA,1,1571840091925,2,This is a,1.5,These are both,bonsai,NA,NA,warmup2,NA
623,NA,swordfish,NA,NA,NA,17,warmup/goldfish.png,swordfish,This is a,NA,2,fish,jessica,NA,goldfish,NA,yes,Please label the pictures below.,NA,NA,32,NA,NA,NA,warmup/swordfish.jpg,fish,graduated_college,NA,NA,english,female,NA,fish,NA,2,1571840091925,1,This is a,1.5,These are both,goldfish,NA,NA,warmup2,NA
623,NA,yorkie,NA,NA,NA,17,warmup/doberman.png,chihuahua,This is a,NA,2,dogs,jessica,NA,doberman,NA,yes,Please label the pictures below.,NA,NA,32,NA,NA,NA,warmup/chihuahua.jpg,dogs,graduated_college,NA,NA,english,female,NA,dogs,NA,3,1571840091925,1,This is a,1.5,These are both,great dane,NA,NA,warmup2,NA
623,NA,chihuahua,NA,NA,NA,17,warmup/doberman.png,chihuahua,This is a,NA,2,dogs,jessica,NA,doberman,NA,yes,Please label the pictures below.,NA,NA,32,NA,NA,NA,warmup/chihuahua.jpg,dogs,graduated_college,NA,NA,english,female,NA,dogs,NA,3,1571840091925,2,This is a,1.5,These are both,doberman,NA,NA,warmup2,NA
623,What do you think your friend meant?,NA,It is big relative to other,images/dog-parade-doberman.png,images/doberman.png,17,NA,NA,NA,NA,2,dogs1,jessica,NA,NA,1,yes,"Your friend runs far ahead of you, and you see him in the distance:",predicative,NA,32,doberman,NA,1,NA,NA,graduated_college,big,NA,english,female,NA,NA,You and your friend see the following:,1,1571840091925,NA,NA,1.5,NA,NA,NA,congr,custom_main_text2,Your friend says: <br/><b>That doberman is big.</b>
623,What do you think your friend meant?,NA,It is big relative to other,images/fish-parade-basic.png,images/swordfish.png,17,NA,NA,NA,NA,2,fish,jessica,NA,NA,0,yes,"Your friend runs far ahead of you, and you see him in the distance:",predicative,NA,32,fish,NA,1,NA,NA,graduated_college,big,NA,english,female,NA,NA,You and your friend see the following:,2,1571840091925,NA,NA,1.5,NA,NA,NA,basic,custom_main_text2,Your friend says: <br/><b>That swordfish is big.</b>
623,What do you think your friend meant?,NA,It is small relative to other,images/tree-parade-basic.png,images/bonsai.png,17,NA,NA,NA,NA,2,trees,jessica,NA,NA,0,yes,"Your friend runs far ahead of you, and you see him in the distance:",predicative,NA,32,trees,NA,1,NA,NA,graduated_college,small,NA,english,female,NA,NA,You and your friend see the following:,3,1571840091925,NA,NA,1.5,NA,NA,NA,basic,custom_main_text2,Your friend says: <br/><b>That bonsai is small.</b>
621,<i>What do you think Speaker A meant? </i>,NA,The Empire State Building is tall relative to other,NA,NA,17,NA,NA,NA,NA,2,NA,susan,1,NA,NA,yes,NA,NA,"<b> Speaker A: ""The Empire State Building is tall.""</b>",67,buildings,NA,NA,NA,NA,some_college,NA,comp_class_warmup,english,female,NA,NA,In the main trials you will be asked to rephrase something a person said. The utterance will contain a word that is <i>relative</i> and your task is to figure out what it is relative to. <br /> <br /> For example: <br /><br />,1,1571839699352,1,NA,1,NA,NA,"buildings, skyscrapers, houses, constructions (choose one)",NA,comp_class_warmup,NA
621,NA,redwood,NA,NA,NA,17,warmup/bonsai.jpg,redwood or sequoia (choose one),This is a,NA,2,trees,susan,NA,bonsai,NA,yes,Please label the pictures below.,NA,NA,67,NA,NA,NA,warmup/sequoia.png,trees,some_college,NA,NA,english,female,NA,trees,NA,1,1571839699352,1,This is a,1,These are both,bonsai,NA,NA,warmup1,NA
621,NA,pug,NA,NA,NA,17,warmup/great-dane.jpg,pug,This is a,NA,2,dogs,susan,NA,great dane,NA,yes,Please label the pictures below.,NA,NA,67,NA,NA,NA,warmup/pug.jpg,dogs,some_college,NA,NA,english,female,NA,dogs,NA,2,1571839699352,1,This is a,1,These are both,great dane,NA,NA,warmup1,NA
621,NA,chihuahua,NA,NA,NA,17,warmup/doberman.png,chihuahua,This is a,NA,2,dogs,susan,NA,doberman,NA,yes,Please label the pictures below.,NA,NA,67,NA,NA,NA,warmup/chihuahua.jpg,dogs,some_college,NA,NA,english,female,NA,dogs,NA,3,1571839699352,1,This is a,1,These are both,great dane,NA,NA,warmup1,NA
621,NA,chihuahua,NA,NA,NA,17,warmup/doberman.png,chihuahua,This is a,NA,2,dogs,susan,NA,doberman,NA,yes,Please label the pictures below.,NA,NA,67,NA,NA,NA,warmup/chihuahua.jpg,dogs,some_college,NA,NA,english,female,NA,dogs,NA,3,1571839699352,2,This is a,1,These are both,doberman,NA,NA,warmup1,NA
621,What do you think your friend meant?,NA,It is small relative to other,images/dog-parade-pug.png,images/pug.png,17,NA,NA,NA,NA,2,dogs2,susan,NA,NA,1,yes,"Your friend runs far ahead of you, and you see him in the distance:",predicative,NA,67,dogs,NA,1,NA,NA,some_college,small,NA,english,female,NA,NA,You and your friend see the following:,1,1571839699352,NA,NA,1,NA,NA,NA,congr,custom_main_text1,Your friend says: <br/><b>That pug is small.</b>
621,What do you think your friend meant?,NA,It is big relative to other,images/tree-parade-redwood.png,images/redwood.png,17,NA,NA,NA,NA,2,trees,susan,NA,NA,1,yes,"Your friend runs far ahead of you, and you see him in the distance:",predicative,NA,67,trees,NA,1,NA,NA,some_college,big,NA,english,female,NA,NA,You and your friend see the following:,2,1571839699352,NA,NA,1,NA,NA,NA,congr,custom_main_text1,Your friend says: <br/><b>That redwood is big.</b>
621,What do you think your friend meant?,NA,It is big relative to other,images/dog-parade-basic.png,images/doberman.png,17,NA,NA,NA,NA,2,dogs1,susan,NA,NA,0,yes,"Your friend runs far ahead of you, and you see him in the distance:",predicative,NA,67,dogs,NA,1,NA,NA,some_college,big,NA,english,female,NA,NA,You and your friend see the following:,3,1571839699352,NA,NA,1,NA,NA,NA,basic,custom_main_text1,Your friend says: <br/><b>That doberman is big.</b>
621,NA,swordfish,NA,NA,NA,17,warmup/goldfish.png,swordfish,This is a,NA,2,fish,susan,NA,goldfish,NA,yes,Please label the pictures below.,NA,NA,67,NA,NA,NA,warmup/swordfish.jpg,fish,some_college,NA,NA,english,female,NA,fish,NA,1,1571839699352,1,This is a,1,These are both,goldfish,NA,NA,warmup2,NA
621,NA,hummingbird,NA,NA,NA,17,warmup/eagle.jpg,hummingbird,This is a,NA,2,birds,susan,NA,eagle,NA,yes,Please label the pictures below.,NA,NA,67,NA,NA,NA,warmup/colibri.jpg,birds,some_college,NA,NA,english,female,NA,birds,NA,2,1571839699352,1,This is an,1,These are both,eagle,NA,NA,warmup2,NA
621,NA,dandelion,NA,NA,NA,17,warmup/sunflower.png,dandelion,This is a,NA,2,flowers,susan,NA,sunflower,NA,yes,Please label the pictures below.,NA,NA,67,NA,NA,NA,warmup/dandelion.jpg,flowers,some_college,NA,NA,english,female,NA,flowers,NA,3,1571839699352,1,This is a,1,These are both,sunflower,NA,NA,warmup2,NA
621,What do you think your friend meant?,NA,It is big relative to other,images/bird-parade-basic.png,images/eagle.png,17,NA,NA,NA,NA,2,birds,susan,NA,NA,0,yes,"Your friend runs far ahead of you, and you see him in the distance:",predicative,NA,67,birds,NA,1,NA,NA,some_college,big,NA,english,female,NA,NA,You and your friend see the following:,1,1571839699352,NA,NA,1,NA,NA,NA,basic,custom_main_text2,Your friend says: <br/><b>That eagle is big.</b>
621,What do you think your friend meant?,NA,It is small relative to other,images/fish-parade-goldfish.png,images/goldfish.png,17,NA,NA,NA,NA,2,fish,susan,NA,NA,1,yes,"Your friend runs far ahead of you, and you see him in the distance:",predicative,NA,67,fish,NA,1,NA,NA,some_college,small,NA,english,female,NA,NA,You and your friend see the following:,2,1571839699352,NA,NA,1,NA,NA,NA,congr,custom_main_text2,Your friend says: <br/><b>That goldfish is small.</b>
621,What do you think your friend meant?,NA,It is small relative to other,images/flower-parade-basic.png,images/dandelion.png,17,NA,NA,NA,NA,2,flowers,susan,NA,NA,0,yes,"Your friend runs far ahead of you, and you see him in the distance:",predicative,NA,67,flowers,NA,1,NA,NA,some_college,small,NA,english,female,NA,NA,You and your friend see the following:,3,1571839699352,NA,NA,1,NA,NA,NA,basic,custom_main_text2,Your friend says: <br/><b>That dandelion is small.</b>
615,<i>What do you think Speaker A meant? </i>,NA,The Empire State Building is tall relative to other,NA,NA,17,NA,NA,NA,NA,2,NA,sarah,1,NA,NA,yes,NA,NA,"<b> Speaker A: ""The Empire State Building is tall.""</b>",25,buildings,NA,NA,NA,NA,graduated_high_school,NA,comp_class_warmup,English,male,NA,NA,In the main trials you will be asked to rephrase something a person said. The utterance will contain a word that is <i>relative</i> and your task is to figure out what it is relative to. <br /> <br /> For example: <br /><br />,1,1571838424014,1,NA,1.2,NA,NA,"buildings, skyscrapers, houses, constructions (choose one)",NA,comp_class_warmup,NA
615,NA,dandelion,NA,NA,NA,17,warmup/sunflower.png,dandelion,This is a,NA,2,flowers,sarah,NA,sunflower,NA,yes,Please label the pictures below.,NA,NA,25,NA,NA,NA,warmup/dandelion.jpg,flowers,graduated_high_school,NA,NA,English,male,NA,flowers,NA,1,1571838424014,1,This is a,1.2,These are both,sunflower,NA,NA,warmup1,NA
615,NA,swordfish,NA,NA,NA,17,warmup/goldfish.png,swordfish,This is a,NA,2,fish,sarah,NA,goldfish,NA,yes,Please label the pictures below.,NA,NA,25,NA,NA,NA,warmup/swordfish.jpg,fish,graduated_high_school,NA,NA,English,male,NA,fish,NA,2,1571838424014,1,This is a,1.2,These are both,goldfish,NA,NA,warmup1,NA
615,NA,hummingbird,NA,NA,NA,17,warmup/eagle.jpg,hummingbird,This is a,NA,2,birds,sarah,NA,eagle,NA,yes,Please label the pictures below.,NA,NA,25,NA,NA,NA,warmup/colibri.jpg,birds,graduated_high_school,NA,NA,English,male,NA,birds,NA,3,1571838424014,1,This is an,1.2,These are both,eagle,NA,NA,warmup1,NA
615,What do you think your friend meant?,NA,It is big relative to other,images/flower-parade-sunflower.png,images/sunflower.png,17,NA,NA,NA,NA,2,flowers,sarah,NA,NA,1,yes,"Your friend runs far ahead of you, and you see him in the distance:",predicative,NA,25,flowers,NA,1,NA,NA,graduated_high_school,big,NA,English,male,NA,NA,You and your friend see the following:,1,1571838424014,NA,NA,1.2,NA,NA,NA,congr,custom_main_text1,Your friend says: <br/><b>That sunflower is big.</b>
615,What do you think your friend meant?,NA,It is small relative to other,images/fish-parade-basic.png,images/goldfish.png,17,NA,NA,NA,NA,2,fish,sarah,NA,NA,0,yes,"Your friend runs far ahead of you, and you see him in the distance:",predicative,NA,25,fish,NA,1,NA,NA,graduated_high_school,small,NA,English,male,NA,NA,You and your friend see the following:,2,1571838424014,NA,NA,1.2,NA,NA,NA,basic,custom_main_text1,Your friend says: <br/><b>That goldfish is small.</b>
615,What do you think your friend meant?,NA,It is small relative to other,images/bird-parade-hummingbird.png,images/hummingbird.png,17,NA,NA,NA,NA,2,birds,sarah,NA,NA,1,yes,"Your friend runs far ahead of you, and you see him in the distance:",predicative,NA,25,birds,NA,1,NA,NA,graduated_high_school,small,NA,English,male,NA,NA,You and your friend see the following:,3,1571838424014,NA,NA,1.2,NA,NA,NA,congr,custom_main_text1,Your friend says: <br/><b>That hummingbird is small.</b>
615,NA,chihuahua,NA,NA,NA,17,warmup/doberman.png,chihuahua,This is a,NA,2,dogs,sarah,NA,doberman,NA,yes,Please label the pictures below.,NA,NA,25,NA,NA,NA,warmup/chihuahua.jpg,dogs,graduated_high_school,NA,NA,English,male,NA,dogs,NA,1,1571838424014,1,This is a,1.2,These are both,doberman,NA,NA,warmup2,NA
615,NA,pug,NA,NA,NA,17,warmup/great-dane.jpg,pug,This is a,NA,2,dogs,sarah,NA,great dane,NA,yes,Please label the pictures below.,NA,NA,25,NA,NA,NA,warmup/pug.jpg,dogs,graduated_high_school,NA,NA,English,male,NA,dogs,NA,2,1571838424014,1,This is a,1.2,These are both,hound,NA,NA,warmup2,NA
615,NA,pug,NA,NA,NA,17,warmup/great-dane.jpg,pug,This is a,NA,2,dogs,sarah,NA,great dane,NA,yes,Please label the pictures below.,NA,NA,25,NA,NA,NA,warmup/pug.jpg,dogs,graduated_high_school,NA,NA,English,male,NA,dogs,NA,2,1571838424014,2,This is a,1.2,These are both,great dane,NA,NA,warmup2,NA
615,NA,redwood,NA,NA,NA,17,warmup/bonsai.jpg,redwood or sequoia (choose one),This is a,NA,2,trees,sarah,NA,bonsai,NA,yes,Please label the pictures below.,NA,NA,25,NA,NA,NA,warmup/sequoia.png,trees,graduated_high_school,NA,NA,English,male,NA,trees,NA,3,1571838424014,1,This is a,1.2,These are both,bonsai,NA,NA,warmup2,NA
615,What do you think your friend meant?,NA,It is big relative to other,images/dog-parade-basic.png,images/doberman.png,17,NA,NA,NA,NA,2,dogs1,sarah,NA,NA,0,yes,"Your friend runs far ahead of you, and you see him in the distance:",predicative,NA,25,dogs,NA,1,NA,NA,graduated_high_school,big,NA,English,male,NA,NA,You and your friend see the following:,1,1571838424014,NA,NA,1.2,NA,NA,NA,basic,custom_main_text2,Your friend says: <br/><b>That doberman is big.</b>
615,What do you think your friend meant?,NA,It is small relative to other,images/dog-parade-basic2.png,images/pug.png,17,NA,NA,NA,NA,2,dogs2,sarah,NA,NA,0,yes,"Your friend runs far ahead of you, and you see him in the distance:",predicative,NA,25,dogs,NA,1,NA,NA,graduated_high_school,small,NA,English,male,NA,NA,You and your friend see the following:,2,1571838424014,NA,NA,1.2,NA,NA,NA,basic,custom_main_text2,Your friend says: <br/><b>That pug is small.</b>
615,What do you think your friend meant?,NA,It is big relative to other,images/tree-parade-redwood.png,images/redwood.png,17,NA,NA,NA,NA,2,trees,sarah,NA,NA,1,yes,"Your friend runs far ahead of you, and you see him in the distance:",predicative,NA,25,trees,NA,1,NA,NA,graduated_high_school,big,NA,English,male,NA,NA,You and your friend see the following:,3,1571838424014,NA,NA,1.2,NA,NA,NA,congr,custom_main_text2,Your friend says: <br/><b>That redwood is big.</b>
614,<i>What do you think Speaker A meant? </i>,NA,The Empire State Building is tall relative to other,NA,NA,17,NA,NA,NA,No,1,NA,jennifer,1,NA,NA,NA,NA,NA,"<b> Speaker A: ""The Empire State Building is tall.""</b>",33,buildings,NA,NA,NA,NA,graduated_college,NA,comp_class_warmup,English,female,NA,NA,In the main trials you will be asked to rephrase something a person said. The utterance will contain a word that is <i>relative</i> and your task is to figure out what it is relative to. <br /> <br /> For example: <br /><br />,1,1571838230291,1,NA,1,NA,NA,"buildings, skyscrapers, houses, constructions (choose one)",NA,comp_class_warmup,NA
614,NA,redwood,NA,NA,NA,17,warmup/bonsai.jpg,redwood or sequoia (choose one),This is a,No,1,trees,jennifer,NA,bonsai,NA,NA,Please label the pictures below.,NA,NA,33,NA,NA,NA,warmup/sequoia.png,trees,graduated_college,NA,NA,English,female,NA,trees,NA,1,1571838230291,1,This is a,1,These are both,bonsai,NA,NA,warmup1,NA
614,NA,pug,NA,NA,NA,17,warmup/great-dane.jpg,pug,This is a,No,1,dogs,jennifer,NA,great dane,NA,NA,Please label the pictures below.,NA,NA,33,NA,NA,NA,warmup/pug.jpg,dogs,graduated_college,NA,NA,English,female,NA,dogs,NA,2,1571838230291,1,This is a,1,These are both,doberman,NA,NA,warmup1,NA
614,NA,pug,NA,NA,NA,17,warmup/great-dane.jpg,pug,This is a,No,1,dogs,jennifer,NA,great dane,NA,NA,Please label the pictures below.,NA,NA,33,NA,NA,NA,warmup/pug.jpg,dogs,graduated_college,NA,NA,English,female,NA,dogs,NA,2,1571838230291,2,This is a,1,These are both,great dane,NA,NA,warmup1,NA
614,NA,Chihuahua,NA,NA,NA,17,warmup/doberman.png,chihuahua,This is a,No,1,dogs,jennifer,NA,doberman,NA,NA,Please label the pictures below.,NA,NA,33,NA,NA,NA,warmup/chihuahua.jpg,dogs,graduated_college,NA,NA,English,female,NA,dogs,NA,3,1571838230291,1,This is a,1,These are both,doberman,NA,NA,warmup1,NA
614,What do you think your friend meant?,NA,It is small relative to other,images/dog-parade-pug.png,images/pug.png,17,NA,NA,NA,No,1,dogs2,jennifer,NA,NA,1,NA,"Your friend runs far ahead of you, and you see him in the distance:",predicative,NA,33,dogs,NA,1,NA,NA,graduated_college,small,NA,English,female,NA,NA,You and your friend see the following:,1,1571838230291,NA,NA,1,NA,NA,NA,congr,custom_main_text1,Your friend says: <br/><b>That pug is small.</b>
614,What do you think your friend meant?,NA,It is big relative to other,images/tree-parade-redwood.png,images/redwood.png,17,NA,NA,NA,No,1,trees,jennifer,NA,NA,1,NA,"Your friend runs far ahead of you, and you see him in the distance:",predicative,NA,33,trees,NA,1,NA,NA,graduated_college,big,NA,English,female,NA,NA,You and your friend see the following:,2,1571838230291,NA,NA,1,NA,NA,NA,congr,custom_main_text1,Your friend says: <br/><b>That redwood is big.</b>
614,What do you think your friend meant?,NA,It is big relative to other,images/dog-parade-basic.png,images/doberman.png,17,NA,NA,NA,No,1,dogs1,jennifer,NA,NA,0,NA,"Your friend runs far ahead of you, and you see him in the distance:",predicative,NA,33,dogs,NA,1,NA,NA,graduated_college,big,NA,English,female,NA,NA,You and your friend see the following:,3,1571838230291,NA,NA,1,NA,NA,NA,basic,custom_main_text1,Your friend says: <br/><b>That doberman is big.</b>
614,NA,dandelion,NA,NA,NA,17,warmup/sunflower.png,dandelion,This is a,No,1,flowers,jennifer,NA,sunflower,NA,NA,Please label the pictures below.,NA,NA,33,NA,NA,NA,warmup/dandelion.jpg,flowers,graduated_college,NA,NA,English,female,NA,flowers,NA,1,1571838230291,1,This is a,1,These are both,sunflower,NA,NA,warmup2,NA
614,NA,hummingbird,NA,NA,NA,17,warmup/eagle.jpg,hummingbird,This is a,No,1,birds,jennifer,NA,eagle,NA,NA,Please label the pictures below.,NA,NA,33,NA,NA,NA,warmup/colibri.jpg,birds,graduated_college,NA,NA,English,female,NA,birds,NA,2,1571838230291,1,This is an,1,These are both,eagle,NA,NA,warmup2,NA
614,NA,swordfish,NA,NA,NA,17,warmup/goldfish.png,swordfish,This is a,No,1,fish,jennifer,NA,goldfish,NA,NA,Please label the pictures below.,NA,NA,33,NA,NA,NA,warmup/swordfish.jpg,fish,graduated_college,NA,NA,English,female,NA,fish,NA,3,1571838230291,1,This is a,1,These are both,goldfish,NA,NA,warmup2,NA
614,What do you think your friend meant?,NA,It is small relative to other,images/flower-parade-basic.png,images/dandelion.png,17,NA,NA,NA,No,1,flowers,jennifer,NA,NA,0,NA,"Your friend runs far ahead of you, and you see him in the distance:",predicative,NA,33,flowers,NA,1,NA,NA,graduated_college,small,NA,English,female,NA,NA,You and your friend see the following:,1,1571838230291,NA,NA,1,NA,NA,NA,basic,custom_main_text2,Your friend says: <br/><b>That dandelion is small.</b>
614,What do you think your friend meant?,NA,It is small relative to other,images/bird-parade-hummingbird.png,images/hummingbird.png,17,NA,NA,NA,No,1,birds,jennifer,NA,NA,1,NA,"Your friend runs far ahead of you, and you see him in the distance:",predicative,NA,33,birds,NA,1,NA,NA,graduated_college,small,NA,English,female,NA,NA,You and your friend see the following:,2,1571838230291,NA,NA,1,NA,NA,NA,congr,custom_main_text2,Your friend says: <br/><b>That hummingbird is small.</b>
614,What do you think your friend meant?,NA,It is big relative to other,images/fish-parade-basic.png,images/swordfish.png,17,NA,NA,NA,No,1,fish,jennifer,NA,NA,0,NA,"Your friend runs far ahead of you, and you see him in the distance:",predicative,NA,33,fish,NA,1,NA,NA,graduated_college,big,NA,English,female,NA,NA,You and your friend see the following:,3,1571838230291,NA,NA,1,NA,NA,NA,basic,custom_main_text2,Your friend says: <br/><b>That swordfish is big.</b>
612,<i>What do you think Speaker A meant? </i>,NA,The Empire State Building is tall relative to other,NA,NA,17,NA,NA,NA,"No, none.",2,NA,linda,1,NA,NA,NA,NA,NA,"<b> Speaker A: ""The Empire State Building is tall.""</b>",NA,other buildings,Thanks!,NA,NA,NA,NA,NA,comp_class_warmup,NA,NA,NA,NA,In the main trials you will be asked to rephrase something a person said. The utterance will contain a word that is <i>relative</i> and your task is to figure out what it is relative to. <br /> <br /> For example: <br /><br />,1,1571837951323,1,NA,1,NA,NA,"buildings, skyscrapers, houses, constructions (choose one)",NA,comp_class_warmup,NA
612,<i>What do you think Speaker A meant? </i>,NA,The Empire State Building is tall relative to other,NA,NA,17,NA,NA,NA,"No, none.",2,NA,linda,1,NA,NA,NA,NA,NA,"<b> Speaker A: ""The Empire State Building is tall.""</b>",NA,buildings,Thanks!,NA,NA,NA,NA,NA,comp_class_warmup,NA,NA,NA,NA,In the main trials you will be asked to rephrase something a person said. The utterance will contain a word that is <i>relative</i> and your task is to figure out what it is relative to. <br /> <br /> For example: <br /><br />,1,1571837951323,2,NA,1,NA,NA,"buildings, skyscrapers, houses, constructions (choose one)",NA,comp_class_warmup,NA
612,NA,dog,NA,NA,NA,17,warmup/great-dane.jpg,pug,This is a,"No, none.",2,dogs,linda,NA,great dane,NA,NA,Please label the pictures below.,NA,NA,NA,NA,Thanks!,NA,warmup/pug.jpg,dogs,NA,NA,NA,NA,NA,NA,dogs,NA,1,1571837951323,1,This is a,1,These are both,dog,NA,NA,warmup1,NA
612,NA,pug,NA,NA,NA,17,warmup/great-dane.jpg,pug,This is a,"No, none.",2,dogs,linda,NA,great dane,NA,NA,Please label the pictures below.,NA,NA,NA,NA,Thanks!,NA,warmup/pug.jpg,dogs,NA,NA,NA,NA,NA,NA,dogs,NA,1,1571837951323,2,This is a,1,These are both,great dane,NA,NA,warmup1,NA
612,NA,dandelion,NA,NA,NA,17,warmup/sunflower.png,dandelion,This is a,"No, none.",2,flowers,linda,NA,sunflower,NA,NA,Please label the pictures below.,NA,NA,NA,NA,Thanks!,NA,warmup/dandelion.jpg,flowers,NA,NA,NA,NA,NA,NA,flowers,NA,2,1571837951323,1,This is a,1,These are both,sunflower,NA,NA,warmup1,NA
612,NA,hummingbird,NA,NA,NA,17,warmup/eagle.jpg,hummingbird,This is a,"No, none.",2,birds,linda,NA,eagle,NA,NA,Please label the pictures below.,NA,NA,NA,NA,Thanks!,NA,warmup/colibri.jpg,birds,NA,NA,NA,NA,NA,NA,birds,NA,3,1571837951323,1,This is an,1,These are both,eagle,NA,NA,warmup1,NA
612,What do you think your friend meant?,NA,It is big relative to other,images/bird-parade-eagle.png,images/eagle.png,17,NA,NA,NA,"No, none.",2,birds,linda,NA,NA,1,NA,"Your friend runs far ahead of you, and you see him in the distance:",predicative,NA,NA,eagles,Thanks!,1,NA,NA,NA,big,NA,NA,NA,NA,NA,You and your friend see the following:,1,1571837951323,NA,NA,1,NA,NA,NA,congr,custom_main_text1,Your friend says: <br/><b>That eagle is big.</b>
612,What do you think your friend meant?,NA,It is big relative to other,images/flower-parade-basic.png,images/sunflower.png,17,NA,NA,NA,"No, none.",2,flowers,linda,NA,NA,0,NA,"Your friend runs far ahead of you, and you see him in the distance:",predicative,NA,NA,flowers,Thanks!,1,NA,NA,NA,big,NA,NA,NA,NA,NA,You and your friend see the following:,2,1571837951323,NA,NA,1,NA,NA,NA,basic,custom_main_text1,Your friend says: <br/><b>That sunflower is big.</b>
612,What do you think your friend meant?,NA,It is small relative to other,images/dog-parade-pug.png,images/pug.png,17,NA,NA,NA,"No, none.",2,dogs2,linda,NA,NA,1,NA,"Your friend runs far ahead of you, and you see him in the distance:",predicative,NA,NA,pugs,Thanks!,1,NA,NA,NA,small,NA,NA,NA,NA,NA,You and your friend see the following:,3,1571837951323,NA,NA,1,NA,NA,NA,congr,custom_main_text1,Your friend says: <br/><b>That pug is small.</b>
612,NA,chihuahua,NA,NA,NA,17,warmup/doberman.png,chihuahua,This is a,"No, none.",2,dogs,linda,NA,doberman,NA,NA,Please label the pictures below.,NA,NA,NA,NA,Thanks!,NA,warmup/chihuahua.jpg,dogs,NA,NA,NA,NA,NA,NA,dogs,NA,1,1571837951323,1,This is a,1,These are both,doberman pincer,NA,NA,warmup2,NA
612,NA,chihuahua,NA,NA,NA,17,warmup/doberman.png,chihuahua,This is a,"No, none.",2,dogs,linda,NA,doberman,NA,NA,Please label the pictures below.,NA,NA,NA,NA,Thanks!,NA,warmup/chihuahua.jpg,dogs,NA,NA,NA,NA,NA,NA,dogs,NA,1,1571837951323,2,This is a,1,These are both,doberman,NA,NA,warmup2,NA
612,NA,redwood,NA,NA,NA,17,warmup/bonsai.jpg,redwood or sequoia (choose one),This is a,"No, none.",2,trees,linda,NA,bonsai,NA,NA,Please label the pictures below.,NA,NA,NA,NA,Thanks!,NA,warmup/sequoia.png,trees,NA,NA,NA,NA,NA,NA,trees,NA,2,1571837951323,1,This is a,1,These are both,bonsai,NA,NA,warmup2,NA
612,NA,swordfish,NA,NA,NA,17,warmup/goldfish.png,swordfish,This is a,"No, none.",2,fish,linda,NA,goldfish,NA,NA,Please label the pictures below.,NA,NA,NA,NA,Thanks!,NA,warmup/swordfish.jpg,fish,NA,NA,NA,NA,NA,NA,fish,NA,3,1571837951323,1,This is a,1,These are both,goldfish,NA,NA,warmup2,NA
612,What do you think your friend meant?,NA,It is small relative to other,images/dog-parade-basic.png,images/chihuahua.png,17,NA,NA,NA,"No, none.",2,dogs1,linda,NA,NA,0,NA,"Your friend runs far ahead of you, and you see him in the distance:",predicative,NA,NA,dogs,Thanks!,1,NA,NA,NA,small,NA,NA,NA,NA,NA,You and your friend see the following:,1,1571837951323,NA,NA,1,NA,NA,NA,basic,custom_main_text2,Your friend says: <br/><b>That chihuahua is small.</b>
612,What do you think your friend meant?,NA,It is big relative to other,images/tree-parade-redwood.png,images/redwood.png,17,NA,NA,NA,"No, none.",2,trees,linda,NA,NA,1,NA,"Your friend runs far ahead of you, and you see him in the distance:",predicative,NA,NA,trees,Thanks!,1,NA,NA,NA,big,NA,NA,NA,NA,NA,You and your friend see the following:,2,1571837951323,NA,NA,1,NA,NA,NA,congr,custom_main_text2,Your friend says: <br/><b>That redwood is big.</b>
612,What do you think your friend meant?,NA,It is small relative to other,images/fish-parade-basic.png,images/goldfish.png,17,NA,NA,NA,"No, none.",2,fish,linda,NA,NA,0,NA,"Your friend runs far ahead of you, and you see him in the distance:",predicative,NA,NA,fish,Thanks!,1,NA,NA,NA,small,NA,NA,NA,NA,NA,You and your friend see the following:,3,1571837951323,NA,NA,1,NA,NA,NA,basic,custom_main_text2,Your friend says: <br/><b>That goldfish is small.</b>
610,<i>What do you think Speaker A meant? </i>,NA,The Empire State Building is tall relative to other,NA,NA,17,NA,NA,NA,NA,2,NA,Jessica,1,NA,NA,yes,NA,NA,"<b> Speaker A: ""The Empire State Building is tall.""</b>",33,buildings,Great study. Way better than most studies.,NA,NA,NA,some_college,NA,comp_class_warmup,English,male,NA,NA,In the main trials you will be asked to rephrase something a person said. The utterance will contain a word that is <i>relative</i> and your task is to figure out what it is relative to. <br /> <br /> For example: <br /><br />,1,1571838004102,1,NA,1,NA,NA,"buildings, skyscrapers, houses, constructions (choose one)",NA,comp_class_warmup,NA
610,NA,swordfish,NA,NA,NA,17,warmup/goldfish.png,swordfish,This is a,NA,2,fish,Jessica,NA,goldfish,NA,yes,Please label the pictures below.,NA,NA,33,NA,Great study. Way better than most studies.,NA,warmup/swordfish.jpg,fish,some_college,NA,NA,English,male,NA,fish,NA,1,1571838004102,1,This is a,1,These are both,gold fish,NA,NA,warmup1,NA
610,NA,swordfish,NA,NA,NA,17,warmup/goldfish.png,swordfish,This is a,NA,2,fish,Jessica,NA,goldfish,NA,yes,Please label the pictures below.,NA,NA,33,NA,Great study. Way better than most studies.,NA,warmup/swordfish.jpg,fish,some_college,NA,NA,English,male,NA,fish,NA,1,1571838004102,2,This is a,1,These are both,goldfish,NA,NA,warmup1,NA
610,NA,dog,NA,NA,NA,17,warmup/doberman.png,chihuahua,This is a,NA,2,dogs,Jessica,NA,doberman,NA,yes,Please label the pictures below.,NA,NA,33,NA,Great study. Way better than most studies.,NA,warmup/chihuahua.jpg,dog,some_college,NA,NA,English,male,NA,dogs,NA,2,1571838004102,1,This is a,1,These are both,dog,NA,NA,warmup1,NA
610,NA,chihuahua,NA,NA,NA,17,warmup/doberman.png,chihuahua,This is a,NA,2,dogs,Jessica,NA,doberman,NA,yes,Please label the pictures below.,NA,NA,33,NA,Great study. Way better than most studies.,NA,warmup/chihuahua.jpg,dog,some_college,NA,NA,English,male,NA,dogs,NA,2,1571838004102,2,This is a,1,These are both,doberman,NA,NA,warmup1,NA
610,NA,chihuahua,NA,NA,NA,17,warmup/doberman.png,chihuahua,This is a,NA,2,dogs,Jessica,NA,doberman,NA,yes,Please label the pictures below.,NA,NA,33,NA,Great study. Way better than most studies.,NA,warmup/chihuahua.jpg,dogs,some_college,NA,NA,English,male,NA,dogs,NA,2,1571838004102,3,This is a,1,These are both,doberman,NA,NA,warmup1,NA
610,NA,pug,NA,NA,NA,17,warmup/great-dane.jpg,pug,This is a,NA,2,dogs,Jessica,NA,great dane,NA,yes,Please label the pictures below.,NA,NA,33,NA,Great study. Way better than most studies.,NA,warmup/pug.jpg,dogs,some_college,NA,NA,English,male,NA,dogs,NA,3,1571838004102,1,This is a,1,These are both,great dane,NA,NA,warmup1,NA
610,What do you think your friend meant?,NA,It is small relative to other,images/fish-parade-goldfish.png,images/goldfish.png,17,NA,NA,NA,NA,2,fish,Jessica,NA,NA,1,yes,"Your friend runs far ahead of you, and you see him in the distance:",predicative,NA,33,fish,Great study. Way better than most studies.,1,NA,NA,some_college,small,NA,English,male,NA,NA,You and your friend see the following:,1,1571838004102,NA,NA,1,NA,NA,NA,congr,custom_main_text1,Your friend says: <br/><b>That goldfish is small.</b>
610,What do you think your friend meant?,NA,It is big relative to other,images/dog-parade-doberman.png,images/doberman.png,17,NA,NA,NA,NA,2,dogs1,Jessica,NA,NA,1,yes,"Your friend runs far ahead of you, and you see him in the distance:",predicative,NA,33,dogs,Great study. Way better than most studies.,1,NA,NA,some_college,big,NA,English,male,NA,NA,You and your friend see the following:,2,1571838004102,NA,NA,1,NA,NA,NA,congr,custom_main_text1,Your friend says: <br/><b>That doberman is big.</b>
610,What do you think your friend meant?,NA,It is small relative to other,images/dog-parade-basic2.png,images/pug.png,17,NA,NA,NA,NA,2,dogs2,Jessica,NA,NA,0,yes,"Your friend runs far ahead of you, and you see him in the distance:",predicative,NA,33,dogs,Great study. Way better than most studies.,1,NA,NA,some_college,small,NA,English,male,NA,NA,You and your friend see the following:,3,1571838004102,NA,NA,1,NA,NA,NA,basic,custom_main_text1,Your friend says: <br/><b>That pug is small.</b>
610,NA,hummingbird,NA,NA,NA,17,warmup/eagle.jpg,hummingbird,This is a,NA,2,birds,Jessica,NA,eagle,NA,yes,Please label the pictures below.,NA,NA,33,NA,Great study. Way better than most studies.,NA,warmup/colibri.jpg,birds,some_college,NA,NA,English,male,NA,birds,NA,1,1571838004102,1,This is an,1,These are both,eagle,NA,NA,warmup2,NA
610,NA,daisy,NA,NA,NA,17,warmup/sunflower.png,dandelion,This is a,NA,2,flowers,Jessica,NA,sunflower,NA,yes,Please label the pictures below.,NA,NA,33,NA,Great study. Way better than most studies.,NA,warmup/dandelion.jpg,flowers,some_college,NA,NA,English,male,NA,flowers,NA,2,1571838004102,1,This is a,1,These are both,sunflower,NA,NA,warmup2,NA
610,NA,dandelion,NA,NA,NA,17,warmup/sunflower.png,dandelion,This is a,NA,2,flowers,Jessica,NA,sunflower,NA,yes,Please label the pictures below.,NA,NA,33,NA,Great study. Way better than most studies.,NA,warmup/dandelion.jpg,flowers,some_college,NA,NA,English,male,NA,flowers,NA,2,1571838004102,2,This is a,1,These are both,sunflower,NA,NA,warmup2,NA
610,NA,tree,NA,NA,NA,17,warmup/bonsai.jpg,redwood or sequoia (choose one),This is a,NA,2,trees,Jessica,NA,bonsai,NA,yes,Please label the pictures below.,NA,NA,33,NA,Great study. Way better than most studies.,NA,warmup/sequoia.png,trees,some_college,NA,NA,English,male,NA,trees,NA,3,1571838004102,1,This is a,1,These are both,tree,NA,NA,warmup2,NA
610,NA,sequoia,NA,NA,NA,17,warmup/bonsai.jpg,redwood or sequoia (choose one),This is a,NA,2,trees,Jessica,NA,bonsai,NA,yes,Please label the pictures below.,NA,NA,33,NA,Great study. Way better than most studies.,NA,warmup/sequoia.png,trees,some_college,NA,NA,English,male,NA,trees,NA,3,1571838004102,2,This is a,1,These are both,bonsai,NA,NA,warmup2,NA
610,What do you think your friend meant?,NA,It is big relative to other,images/flower-parade-basic.png,images/sunflower.png,17,NA,NA,NA,NA,2,flowers,Jessica,NA,NA,0,yes,"Your friend runs far ahead of you, and you see him in the distance:",predicative,NA,33,flowers,Great study. Way better than most studies.,1,NA,NA,some_college,big,NA,English,male,NA,NA,You and your friend see the following:,1,1571838004102,NA,NA,1,NA,NA,NA,basic,custom_main_text2,Your friend says: <br/><b>That sunflower is big.</b>
610,What do you think your friend meant?,NA,It is big relative to other,images/bird-parade-eagle.png,images/eagle.png,17,NA,NA,NA,NA,2,birds,Jessica,NA,NA,1,yes,"Your friend runs far ahead of you, and you see him in the distance:",predicative,NA,33,eagles,Great study. Way better than most studies.,1,NA,NA,some_college,big,NA,English,male,NA,NA,You and your friend see the following:,2,1571838004102,NA,NA,1,NA,NA,NA,congr,custom_main_text2,Your friend says: <br/><b>That eagle is big.</b>
610,What do you think your friend meant?,NA,It is small relative to other,images/tree-parade-basic.png,images/bonsai.png,17,NA,NA,NA,NA,2,trees,Jessica,NA,NA,0,yes,"Your friend runs far ahead of you, and you see him in the distance:",predicative,NA,33,trees,Great study. Way better than most studies.,1,NA,NA,some_college,small,NA,English,male,NA,NA,You and your friend see the following:,3,1571838004102,NA,NA,1,NA,NA,NA,basic,custom_main_text2,Your friend says: <br/><b>That bonsai is small.</b>
608,<i>What do you think Speaker A meant? </i>,NA,The Empire State Building is tall relative to other,NA,NA,17,NA,NA,NA,No,2,NA,margaret,1,NA,NA,yes,NA,NA,"<b> Speaker A: ""The Empire State Building is tall.""</b>",33,buildings,NA,NA,NA,NA,some_college,NA,comp_class_warmup,english,female,NA,NA,In the main trials you will be asked to rephrase something a person said. The utterance will contain a word that is <i>relative</i> and your task is to figure out what it is relative to. <br /> <br /> For example: <br /><br />,1,1571837300370,1,NA,1,NA,NA,"buildings, skyscrapers, houses, constructions (choose one)",NA,comp_class_warmup,NA
608,NA,bird,NA,NA,NA,17,warmup/eagle.jpg,hummingbird,This is a,No,2,birds,margaret,NA,eagle,NA,yes,Please label the pictures below.,NA,NA,33,NA,NA,NA,warmup/colibri.jpg,birds,some_college,NA,NA,english,female,NA,birds,NA,1,1571837300370,1,This is an,1,These are both,hawk,NA,NA,warmup1,NA
608,NA,hummingbird,NA,NA,NA,17,warmup/eagle.jpg,hummingbird,This is a,No,2,birds,margaret,NA,eagle,NA,yes,Please label the pictures below.,NA,NA,33,NA,NA,NA,warmup/colibri.jpg,birds,some_college,NA,NA,english,female,NA,birds,NA,1,1571837300370,2,This is an,1,These are both,eagle,NA,NA,warmup1,NA
608,NA,marlin,NA,NA,NA,17,warmup/goldfish.png,swordfish,This is a,No,2,fish,margaret,NA,goldfish,NA,yes,Please label the pictures below.,NA,NA,33,NA,NA,NA,warmup/swordfish.jpg,fish,some_college,NA,NA,english,female,NA,fish,NA,2,1571837300370,1,This is a,1,These are both,goldfish,NA,NA,warmup1,NA
608,NA,swordfish,NA,NA,NA,17,warmup/goldfish.png,swordfish,This is a,No,2,fish,margaret,NA,goldfish,NA,yes,Please label the pictures below.,NA,NA,33,NA,NA,NA,warmup/swordfish.jpg,fish,some_college,NA,NA,english,female,NA,fish,NA,2,1571837300370,2,This is a,1,These are both,goldfish,NA,NA,warmup1,NA
608,NA,dandelion,NA,NA,NA,17,warmup/sunflower.png,dandelion,This is a,No,2,flowers,margaret,NA,sunflower,NA,yes,Please label the pictures below.,NA,NA,33,NA,NA,NA,warmup/dandelion.jpg,flowers,some_college,NA,NA,english,female,NA,flowers,NA,3,1571837300370,1,This is a,1,These are both,sunflower,NA,NA,warmup1,NA
608,What do you think your friend meant?,NA,It is big relative to other,images/fish-parade-swordfish.png,images/swordfish.png,17,NA,NA,NA,No,2,fish,margaret,NA,NA,1,yes,"Your friend runs far ahead of you, and you see him in the distance:",predicative,NA,33,swordfish,NA,1,NA,NA,some_college,big,NA,english,female,NA,NA,You and your friend see the following:,1,1571837300370,NA,NA,1,NA,NA,NA,congr,custom_main_text1,Your friend says: <br/><b>That swordfish is big.</b>
608,What do you think your friend meant?,NA,It is small relative to other,images/bird-parade-hummingbird.png,images/hummingbird.png,17,NA,NA,NA,No,2,birds,margaret,NA,NA,1,yes,"Your friend runs far ahead of you, and you see him in the distance:",predicative,NA,33,hummingbirrds,NA,1,NA,NA,some_college,small,NA,english,female,NA,NA,You and your friend see the following:,2,1571837300370,NA,NA,1,NA,NA,NA,congr,custom_main_text1,Your friend says: <br/><b>That hummingbird is small.</b>
608,What do you think your friend meant?,NA,It is small relative to other,images/flower-parade-basic.png,images/dandelion.png,17,NA,NA,NA,No,2,flowers,margaret,NA,NA,0,yes,"Your friend runs far ahead of you, and you see him in the distance:",predicative,NA,33,flowers,NA,1,NA,NA,some_college,small,NA,english,female,NA,NA,You and your friend see the following:,3,1571837300370,NA,NA,1,NA,NA,NA,basic,custom_main_text1,Your friend says: <br/><b>That dandelion is small.</b>
608,NA,pug,NA,NA,NA,17,warmup/great-dane.jpg,pug,This is a,No,2,dogs,margaret,NA,great dane,NA,yes,Please label the pictures below.,NA,NA,33,NA,NA,NA,warmup/pug.jpg,dogs,some_college,NA,NA,english,female,NA,dogs,NA,1,1571837300370,1,This is a,1,These are both,great dane,NA,NA,warmup2,NA
608,NA,terrier,NA,NA,NA,17,warmup/doberman.png,chihuahua,This is a,No,2,dogs,margaret,NA,doberman,NA,yes,Please label the pictures below.,NA,NA,33,NA,NA,NA,warmup/chihuahua.jpg,dogs,some_college,NA,NA,english,female,NA,dogs,NA,2,1571837300370,1,This is a,1,These are both,german shepherd,NA,NA,warmup2,NA
608,NA,chihuahua,NA,NA,NA,17,warmup/doberman.png,chihuahua,This is a,No,2,dogs,margaret,NA,doberman,NA,yes,Please label the pictures below.,NA,NA,33,NA,NA,NA,warmup/chihuahua.jpg,dogs,some_college,NA,NA,english,female,NA,dogs,NA,2,1571837300370,2,This is a,1,These are both,doberman,NA,NA,warmup2,NA
608,NA,oak tree,NA,NA,NA,17,warmup/bonsai.jpg,redwood or sequoia (choose one),This is a,No,2,trees,margaret,NA,bonsai,NA,yes,Please label the pictures below.,NA,NA,33,NA,NA,NA,warmup/sequoia.png,trees,some_college,NA,NA,english,female,NA,trees,NA,3,1571837300370,1,This is a,1,These are both,bonsai tree,NA,NA,warmup2,NA
608,NA,redwood,NA,NA,NA,17,warmup/bonsai.jpg,redwood or sequoia (choose one),This is a,No,2,trees,margaret,NA,bonsai,NA,yes,Please label the pictures below.,NA,NA,33,NA,NA,NA,warmup/sequoia.png,trees,some_college,NA,NA,english,female,NA,trees,NA,3,1571837300370,2,This is a,1,These are both,bonsai,NA,NA,warmup2,NA
608,What do you think your friend meant?,NA,It is small relative to other,images/tree-parade-basic.png,images/bonsai.png,17,NA,NA,NA,No,2,trees,margaret,NA,NA,0,yes,"Your friend runs far ahead of you, and you see him in the distance:",predicative,NA,33,trees,NA,1,NA,NA,some_college,small,NA,english,female,NA,NA,You and your friend see the following:,1,1571837300370,NA,NA,1,NA,NA,NA,basic,custom_main_text2,Your friend says: <br/><b>That bonsai is small.</b>
608,What do you think your friend meant?,NA,It is big relative to other,images/dog-parade-great-dane.png,images/great-dane.png,17,NA,NA,NA,No,2,dogs2,margaret,NA,NA,1,yes,"Your friend runs far ahead of you, and you see him in the distance:",predicative,NA,33,dogs,NA,1,NA,NA,some_college,big,NA,english,female,NA,NA,You and your friend see the following:,2,1571837300370,NA,NA,1,NA,NA,NA,congr,custom_main_text2,Your friend says: <br/><b>That great dane is big.</b>
608,What do you think your friend meant?,NA,It is big relative to other,images/dog-parade-basic.png,images/doberman.png,17,NA,NA,NA,No,2,dogs1,margaret,NA,NA,0,yes,"Your friend runs far ahead of you, and you see him in the distance:",predicative,NA,33,dogs,NA,1,NA,NA,some_college,big,NA,english,female,NA,NA,You and your friend see the following:,3,1571837300370,NA,NA,1,NA,NA,NA,basic,custom_main_text2,Your friend says: <br/><b>That doberman is big.</b>
607,<i>What do you think Speaker A meant? </i>,NA,The Empire State Building is tall relative to other,NA,NA,17,NA,NA,NA,no,2,NA,Jennifer,1,NA,NA,yes,NA,NA,"<b> Speaker A: ""The Empire State Building is tall.""</b>",38,buildings,NA,NA,NA,NA,some_college,NA,comp_class_warmup,english,female,NA,NA,In the main trials you will be asked to rephrase something a person said. The utterance will contain a word that is <i>relative</i> and your task is to figure out what it is relative to. <br /> <br /> For example: <br /><br />,1,1571837809206,1,NA,1,NA,NA,"buildings, skyscrapers, houses, constructions (choose one)",NA,comp_class_warmup,NA
607,NA,pug,NA,NA,NA,17,warmup/great-dane.jpg,pug,This is a,no,2,dogs,Jennifer,NA,great dane,NA,yes,Please label the pictures below.,NA,NA,38,NA,NA,NA,warmup/pug.jpg,dogs,some_college,NA,NA,english,female,NA,dogs,NA,1,1571837809206,1,This is a,1,These are both,great dane,NA,NA,warmup1,NA
607,NA,dandelion,NA,NA,NA,17,warmup/sunflower.png,dandelion,This is a,no,2,flowers,Jennifer,NA,sunflower,NA,yes,Please label the pictures below.,NA,NA,38,NA,NA,NA,warmup/dandelion.jpg,flowers,some_college,NA,NA,english,female,NA,flowers,NA,2,1571837809206,1,This is a,1,These are both,sunflower,NA,NA,warmup1,NA
607,NA,hummingbird,NA,NA,NA,17,warmup/eagle.jpg,hummingbird,This is a,no,2,birds,Jennifer,NA,eagle,NA,yes,Please label the pictures below.,NA,NA,38,NA,NA,NA,warmup/colibri.jpg,birds,some_college,NA,NA,english,female,NA,birds,NA,3,1571837809206,1,This is an,1,These are both,eagle,NA,NA,warmup1,NA
607,What do you think your friend meant?,NA,It is small relative to other,images/flower-parade-dandelion.png,images/dandelion.png,17,NA,NA,NA,no,2,flowers,Jennifer,NA,NA,1,yes,"Your friend runs far ahead of you, and you see him in the distance:",predicative,NA,38,dandelions,NA,1,NA,NA,some_college,small,NA,english,female,NA,NA,You and your friend see the following:,1,1571837809206,NA,NA,1,NA,NA,NA,congr,custom_main_text1,Your friend says: <br/><b>That dandelion is small.</b>
607,What do you think your friend meant?,NA,It is big relative to other,images/bird-parade-eagle.png,images/eagle.png,17,NA,NA,NA,no,2,birds,Jennifer,NA,NA,1,yes,"Your friend runs far ahead of you, and you see him in the distance:",predicative,NA,38,eagles,NA,1,NA,NA,some_college,big,NA,english,female,NA,NA,You and your friend see the following:,2,1571837809206,NA,NA,1,NA,NA,NA,congr,custom_main_text1,Your friend says: <br/><b>That eagle is big.</b>
607,What do you think your friend meant?,NA,It is small relative to other,images/dog-parade-basic2.png,images/pug.png,17,NA,NA,NA,no,2,dogs2,Jennifer,NA,NA,0,yes,"Your friend runs far ahead of you, and you see him in the distance:",predicative,NA,38,dogs,NA,1,NA,NA,some_college,small,NA,english,female,NA,NA,You and your friend see the following:,3,1571837809206,NA,NA,1,NA,NA,NA,basic,custom_main_text1,Your friend says: <br/><b>That pug is small.</b>
607,NA,redwood,NA,NA,NA,17,warmup/bonsai.jpg,redwood or sequoia (choose one),This is a,no,2,trees,Jennifer,NA,bonsai,NA,yes,Please label the pictures below.,NA,NA,38,NA,NA,NA,warmup/sequoia.png,trees,some_college,NA,NA,english,female,NA,trees,NA,1,1571837809206,1,This is a,1,These are both,bonsai,NA,NA,warmup2,NA
607,NA,swordfish,NA,NA,NA,17,warmup/goldfish.png,swordfish,This is a,no,2,fish,Jennifer,NA,goldfish,NA,yes,Please label the pictures below.,NA,NA,38,NA,NA,NA,warmup/swordfish.jpg,fish,some_college,NA,NA,english,female,NA,fish,NA,2,1571837809206,1,This is a,1,These are both,goldfish,NA,NA,warmup2,NA
607,NA,chihauhua,NA,NA,NA,17,warmup/doberman.png,chihuahua,This is a,no,2,dogs,Jennifer,NA,doberman,NA,yes,Please label the pictures below.,NA,NA,38,NA,NA,NA,warmup/chihuahua.jpg,dogs,some_college,NA,NA,english,female,NA,dogs,NA,3,1571837809206,1,This is a,1,These are both,doberman,NA,NA,warmup2,NA
607,NA,chihuahua,NA,NA,NA,17,warmup/doberman.png,chihuahua,This is a,no,2,dogs,Jennifer,NA,doberman,NA,yes,Please label the pictures below.,NA,NA,38,NA,NA,NA,warmup/chihuahua.jpg,dogs,some_college,NA,NA,english,female,NA,dogs,NA,3,1571837809206,2,This is a,1,These are both,doberman,NA,NA,warmup2,NA
607,What do you think your friend meant?,NA,It is small relative to other,images/fish-parade-basic.png,images/goldfish.png,17,NA,NA,NA,no,2,fish,Jennifer,NA,NA,0,yes,"Your friend runs far ahead of you, and you see him in the distance:",predicative,NA,38,fish,NA,1,NA,NA,some_college,small,NA,english,female,NA,NA,You and your friend see the following:,1,1571837809206,NA,NA,1,NA,NA,NA,basic,custom_main_text2,Your friend says: <br/><b>That goldfish is small.</b>
607,What do you think your friend meant?,NA,It is big relative to other,images/dog-parade-basic.png,images/doberman.png,17,NA,NA,NA,no,2,dogs1,Jennifer,NA,NA,0,yes,"Your friend runs far ahead of you, and you see him in the distance:",predicative,NA,38,doberman,NA,1,NA,NA,some_college,big,NA,english,female,NA,NA,You and your friend see the following:,2,1571837809206,NA,NA,1,NA,NA,NA,basic,custom_main_text2,Your friend says: <br/><b>That doberman is big.</b>
607,What do you think your friend meant?,NA,It is big relative to other,images/tree-parade-redwood.png,images/redwood.png,17,NA,NA,NA,no,2,trees,Jennifer,NA,NA,1,yes,"Your friend runs far ahead of you, and you see him in the distance:",predicative,NA,38,redwood,NA,1,NA,NA,some_college,big,NA,english,female,NA,NA,You and your friend see the following:,3,1571837809206,NA,NA,1,NA,NA,NA,congr,custom_main_text2,Your friend says: <br/><b>That redwood is big.</b>
606,<i>What do you think Speaker A meant? </i>,NA,The Empire State Building is tall relative to other,NA,NA,17,NA,NA,NA,no,1,NA,Patricia,1,NA,NA,yes,NA,NA,"<b> Speaker A: ""The Empire State Building is tall.""</b>",42,buildings,NA,NA,NA,NA,graduated_high_school,NA,comp_class_warmup,English,male,NA,NA,In the main trials you will be asked to rephrase something a person said. The utterance will contain a word that is <i>relative</i> and your task is to figure out what it is relative to. <br /> <br /> For example: <br /><br />,1,1571837727923,1,NA,1,NA,NA,"buildings, skyscrapers, houses, constructions (choose one)",NA,comp_class_warmup,NA
606,NA,redwood,NA,NA,NA,17,warmup/bonsai.jpg,redwood or sequoia (choose one),This is a,no,1,trees,Patricia,NA,bonsai,NA,yes,Please label the pictures below.,NA,NA,42,NA,NA,NA,warmup/sequoia.png,trees,graduated_high_school,NA,NA,English,male,NA,trees,NA,1,1571837727923,1,This is a,1,These are both,banzai,NA,NA,warmup1,NA
606,NA,redwood,NA,NA,NA,17,warmup/bonsai.jpg,redwood or sequoia (choose one),This is a,no,1,trees,Patricia,NA,bonsai,NA,yes,Please label the pictures below.,NA,NA,42,NA,NA,NA,warmup/sequoia.png,trees,graduated_high_school,NA,NA,English,male,NA,trees,NA,1,1571837727923,2,This is a,1,These are both,bonsai,NA,NA,warmup1,NA
606,NA,dandelion,NA,NA,NA,17,warmup/sunflower.png,dandelion,This is a,no,1,flowers,Patricia,NA,sunflower,NA,yes,Please label the pictures below.,NA,NA,42,NA,NA,NA,warmup/dandelion.jpg,flowers,graduated_high_school,NA,NA,English,male,NA,flowers,NA,2,1571837727923,1,This is a,1,These are both,sunflower,NA,NA,warmup1,NA
606,NA,pug,NA,NA,NA,17,warmup/great-dane.jpg,pug,This is a,no,1,dogs,Patricia,NA,great dane,NA,yes,Please label the pictures below.,NA,NA,42,NA,NA,NA,warmup/pug.jpg,dogs,graduated_high_school,NA,NA,English,male,NA,dogs,NA,3,1571837727923,1,This is a,1,These are both,great dane,NA,NA,warmup1,NA
606,What do you think your friend meant?,NA,It is small relative to other,images/dog-parade-pug.png,images/pug.png,17,NA,NA,NA,no,1,dogs2,Patricia,NA,NA,1,yes,"Your friend runs far ahead of you, and you see him in the distance:",predicative,NA,42,pugs,NA,1,NA,NA,graduated_high_school,small,NA,English,male,NA,NA,You and your friend see the following:,1,1571837727923,NA,NA,1,NA,NA,NA,congr,custom_main_text1,Your friend says: <br/><b>That pug is small.</b>
606,What do you think your friend meant?,NA,It is big relative to other,images/tree-parade-redwood.png,images/redwood.png,17,NA,NA,NA,no,1,trees,Patricia,NA,NA,1,yes,"Your friend runs far ahead of you, and you see him in the distance:",predicative,NA,42,redwoods,NA,1,NA,NA,graduated_high_school,big,NA,English,male,NA,NA,You and your friend see the following:,2,1571837727923,NA,NA,1,NA,NA,NA,congr,custom_main_text1,Your friend says: <br/><b>That redwood is big.</b>
606,What do you think your friend meant?,NA,It is small relative to other,images/flower-parade-basic.png,images/dandelion.png,17,NA,NA,NA,no,1,flowers,Patricia,NA,NA,0,yes,"Your friend runs far ahead of you, and you see him in the distance:",predicative,NA,42,flowers,NA,1,NA,NA,graduated_high_school,small,NA,English,male,NA,NA,You and your friend see the following:,3,1571837727923,NA,NA,1,NA,NA,NA,basic,custom_main_text1,Your friend says: <br/><b>That dandelion is small.</b>
606,NA,swordfish,NA,NA,NA,17,warmup/goldfish.png,swordfish,This is a,no,1,fish,Patricia,NA,goldfish,NA,yes,Please label the pictures below.,NA,NA,42,NA,NA,NA,warmup/swordfish.jpg,fish,graduated_high_school,NA,NA,English,male,NA,fish,NA,1,1571837727923,1,This is a,1,These are both,goldfish,NA,NA,warmup2,NA
606,NA,hummingbiurd,NA,NA,NA,17,warmup/eagle.jpg,hummingbird,This is a,no,1,birds,Patricia,NA,eagle,NA,yes,Please label the pictures below.,NA,NA,42,NA,NA,NA,warmup/colibri.jpg,birds,graduated_high_school,NA,NA,English,male,NA,birds,NA,2,1571837727923,1,This is an,1,These are both,eagle,NA,NA,warmup2,NA
606,NA,hummingbird,NA,NA,NA,17,warmup/eagle.jpg,hummingbird,This is a,no,1,birds,Patricia,NA,eagle,NA,yes,Please label the pictures below.,NA,NA,42,NA,NA,NA,warmup/colibri.jpg,birds,graduated_high_school,NA,NA,English,male,NA,birds,NA,2,1571837727923,2,This is an,1,These are both,eagle,NA,NA,warmup2,NA
606,NA,chihuahua,NA,NA,NA,17,warmup/doberman.png,chihuahua,This is a,no,1,dogs,Patricia,NA,doberman,NA,yes,Please label the pictures below.,NA,NA,42,NA,NA,NA,warmup/chihuahua.jpg,digs,graduated_high_school,NA,NA,English,male,NA,dogs,NA,3,1571837727923,1,This is a,1,These are both,doberman,NA,NA,warmup2,NA
606,NA,chihuahua,NA,NA,NA,17,warmup/doberman.png,chihuahua,This is a,no,1,dogs,Patricia,NA,doberman,NA,yes,Please label the pictures below.,NA,NA,42,NA,NA,NA,warmup/chihuahua.jpg,dogs,graduated_high_school,NA,NA,English,male,NA,dogs,NA,3,1571837727923,2,This is a,1,These are both,doberman,NA,NA,warmup2,NA
606,What do you think your friend meant?,NA,It is small relative to other,images/dog-parade-chihuahua.png,images/chihuahua.png,17,NA,NA,NA,no,1,dogs1,Patricia,NA,NA,1,yes,"Your friend runs far ahead of you, and you see him in the distance:",predicative,NA,42,chihuahua,NA,1,NA,NA,graduated_high_school,small,NA,English,male,NA,NA,You and your friend see the following:,1,1571837727923,NA,NA,1,NA,NA,NA,congr,custom_main_text2,Your friend says: <br/><b>That chihuahua is small.</b>
606,What do you think your friend meant?,NA,It is big relative to other,images/fish-parade-basic.png,images/swordfish.png,17,NA,NA,NA,no,1,fish,Patricia,NA,NA,0,yes,"Your friend runs far ahead of you, and you see him in the distance:",predicative,NA,42,fish,NA,1,NA,NA,graduated_high_school,big,NA,English,male,NA,NA,You and your friend see the following:,2,1571837727923,NA,NA,1,NA,NA,NA,basic,custom_main_text2,Your friend says: <br/><b>That swordfish is big.</b>
606,What do you think your friend meant?,NA,It is big relative to other,images/bird-parade-basic.png,images/eagle.png,17,NA,NA,NA,no,1,birds,Patricia,NA,NA,0,yes,"Your friend runs far ahead of you, and you see him in the distance:",predicative,NA,42,birds,NA,1,NA,NA,graduated_high_school,big,NA,English,male,NA,NA,You and your friend see the following:,3,1571837727923,NA,NA,1,NA,NA,NA,basic,custom_main_text2,Your friend says: <br/><b>That eagle is big.</b>
605,<i>What do you think Speaker A meant? </i>,NA,The Empire State Building is tall relative to other,NA,NA,17,NA,NA,NA,no,2,NA,mary,1,NA,NA,yes,NA,NA,"<b> Speaker A: ""The Empire State Building is tall.""</b>",38,buildings,NA,NA,NA,NA,some_college,NA,comp_class_warmup,english,female,NA,NA,In the main trials you will be asked to rephrase something a person said. The utterance will contain a word that is <i>relative</i> and your task is to figure out what it is relative to. <br /> <br /> For example: <br /><br />,1,1571837432683,1,NA,1,NA,NA,"buildings, skyscrapers, houses, constructions (choose one)",NA,comp_class_warmup,NA
605,NA,humming bird,NA,NA,NA,17,warmup/eagle.jpg,hummingbird,This is a,no,2,birds,mary,NA,eagle,NA,yes,Please label the pictures below.,NA,NA,38,NA,NA,NA,warmup/colibri.jpg,birds,some_college,NA,NA,english,female,NA,birds,NA,1,1571837432683,1,This is an,1,These are both,eagle,NA,NA,warmup1,NA
605,NA,hummingbird,NA,NA,NA,17,warmup/eagle.jpg,hummingbird,This is a,no,2,birds,mary,NA,eagle,NA,yes,Please label the pictures below.,NA,NA,38,NA,NA,NA,warmup/colibri.jpg,birds,some_college,NA,NA,english,female,NA,birds,NA,1,1571837432683,2,This is an,1,These are both,eagle,NA,NA,warmup1,NA
605,NA,swordfish,NA,NA,NA,17,warmup/goldfish.png,swordfish,This is a,no,2,fish,mary,NA,goldfish,NA,yes,Please label the pictures below.,NA,NA,38,NA,NA,NA,warmup/swordfish.jpg,fish,some_college,NA,NA,english,female,NA,fish,NA,2,1571837432683,1,This is a,1,These are both,godlfish,NA,NA,warmup1,NA
605,NA,swordfish,NA,NA,NA,17,warmup/goldfish.png,swordfish,This is a,no,2,fish,mary,NA,goldfish,NA,yes,Please label the pictures below.,NA,NA,38,NA,NA,NA,warmup/swordfish.jpg,fish,some_college,NA,NA,english,female,NA,fish,NA,2,1571837432683,2,This is a,1,These are both,goldfish,NA,NA,warmup1,NA
605,NA,pug,NA,NA,NA,17,warmup/great-dane.jpg,pug,This is a,no,2,dogs,mary,NA,great dane,NA,yes,Please label the pictures below.,NA,NA,38,NA,NA,NA,warmup/pug.jpg,dogs,some_college,NA,NA,english,female,NA,dogs,NA,3,1571837432683,1,This is a,1,These are both,great dane,NA,NA,warmup1,NA
605,What do you think your friend meant?,NA,It is small relative to other,images/dog-parade-pug.png,images/pug.png,17,NA,NA,NA,no,2,dogs2,mary,NA,NA,1,yes,"Your friend runs far ahead of you, and you see him in the distance:",predicative,NA,38,pugs,NA,1,NA,NA,some_college,small,NA,english,female,NA,NA,You and your friend see the following:,1,1571837432683,NA,NA,1,NA,NA,NA,congr,custom_main_text1,Your friend says: <br/><b>That pug is small.</b>
605,What do you think your friend meant?,NA,It is small relative to other,images/fish-parade-basic.png,images/goldfish.png,17,NA,NA,NA,no,2,fish,mary,NA,NA,0,yes,"Your friend runs far ahead of you, and you see him in the distance:",predicative,NA,38,fish,NA,1,NA,NA,some_college,small,NA,english,female,NA,NA,You and your friend see the following:,2,1571837432683,NA,NA,1,NA,NA,NA,basic,custom_main_text1,Your friend says: <br/><b>That goldfish is small.</b>
605,What do you think your friend meant?,NA,It is big relative to other,images/bird-parade-basic.png,images/eagle.png,17,NA,NA,NA,no,2,birds,mary,NA,NA,0,yes,"Your friend runs far ahead of you, and you see him in the distance:",predicative,NA,38,birds,NA,1,NA,NA,some_college,big,NA,english,female,NA,NA,You and your friend see the following:,3,1571837432683,NA,NA,1,NA,NA,NA,basic,custom_main_text1,Your friend says: <br/><b>That eagle is big.</b>
605,NA,chihuaha,NA,NA,NA,17,warmup/doberman.png,chihuahua,This is a,no,2,dogs,mary,NA,doberman,NA,yes,Please label the pictures below.,NA,NA,38,NA,NA,NA,warmup/chihuahua.jpg,dogs,some_college,NA,NA,english,female,NA,dogs,NA,1,1571837432683,1,This is a,1,These are both,doberman,NA,NA,warmup2,NA
605,NA,chihuaha,NA,NA,NA,17,warmup/doberman.png,chihuahua,This is a,no,2,dogs,mary,NA,doberman,NA,yes,Please label the pictures below.,NA,NA,38,NA,NA,NA,warmup/chihuahua.jpg,dogs,some_college,NA,NA,english,female,NA,dogs,NA,1,1571837432683,2,This is a,1,These are both,doberman,NA,NA,warmup2,NA
605,NA,chihuahua,NA,NA,NA,17,warmup/doberman.png,chihuahua,This is a,no,2,dogs,mary,NA,doberman,NA,yes,Please label the pictures below.,NA,NA,38,NA,NA,NA,warmup/chihuahua.jpg,dogs,some_college,NA,NA,english,female,NA,dogs,NA,1,1571837432683,3,This is a,1,These are both,doberman,NA,NA,warmup2,NA
605,NA,dendelion,NA,NA,NA,17,warmup/sunflower.png,dandelion,This is a,no,2,flowers,mary,NA,sunflower,NA,yes,Please label the pictures below.,NA,NA,38,NA,NA,NA,warmup/dandelion.jpg,plants,some_college,NA,NA,english,female,NA,flowers,NA,2,1571837432683,1,This is a,1,These are both,sunflower,NA,NA,warmup2,NA
605,NA,dendelion,NA,NA,NA,17,warmup/sunflower.png,dandelion,This is a,no,2,flowers,mary,NA,sunflower,NA,yes,Please label the pictures below.,NA,NA,38,NA,NA,NA,warmup/dandelion.jpg,flowers,some_college,NA,NA,english,female,NA,flowers,NA,2,1571837432683,2,This is a,1,These are both,sunflower,NA,NA,warmup2,NA
605,NA,dandelion,NA,NA,NA,17,warmup/sunflower.png,dandelion,This is a,no,2,flowers,mary,NA,sunflower,NA,yes,Please label the pictures below.,NA,NA,38,NA,NA,NA,warmup/dandelion.jpg,flowers,some_college,NA,NA,english,female,NA,flowers,NA,2,1571837432683,3,This is a,1,These are both,sunflower,NA,NA,warmup2,NA
605,NA,elm tree,NA,NA,NA,17,warmup/bonsai.jpg,redwood or sequoia (choose one),This is a,no,2,trees,mary,NA,bonsai,NA,yes,Please label the pictures below.,NA,NA,38,NA,NA,NA,warmup/sequoia.png,trees,some_college,NA,NA,english,female,NA,trees,NA,3,1571837432683,1,This is a,1,These are both,bonzai plant,NA,NA,warmup2,NA
605,NA,sequoia,NA,NA,NA,17,warmup/bonsai.jpg,redwood or sequoia (choose one),This is a,no,2,trees,mary,NA,bonsai,NA,yes,Please label the pictures below.,NA,NA,38,NA,NA,NA,warmup/sequoia.png,trees,some_college,NA,NA,english,female,NA,trees,NA,3,1571837432683,2,This is a,1,These are both,bonsai,NA,NA,warmup2,NA
605,What do you think your friend meant?,NA,It is big relative to other,images/flower-parade-basic.png,images/sunflower.png,17,NA,NA,NA,no,2,flowers,mary,NA,NA,0,yes,"Your friend runs far ahead of you, and you see him in the distance:",predicative,NA,38,flowers,NA,1,NA,NA,some_college,big,NA,english,female,NA,NA,You and your friend see the following:,1,1571837432683,NA,NA,1,NA,NA,NA,basic,custom_main_text2,Your friend says: <br/><b>That sunflower is big.</b>
605,What do you think your friend meant?,NA,It is big relative to other,images/tree-parade-redwood.png,images/redwood.png,17,NA,NA,NA,no,2,trees,mary,NA,NA,1,yes,"Your friend runs far ahead of you, and you see him in the distance:",predicative,NA,38,trees,NA,1,NA,NA,some_college,big,NA,english,female,NA,NA,You and your friend see the following:,2,1571837432683,NA,NA,1,NA,NA,NA,congr,custom_main_text2,Your friend says: <br/><b>That redwood is big.</b>
605,What do you think your friend meant?,NA,It is small relative to other,images/dog-parade-chihuahua.png,images/chihuahua.png,17,NA,NA,NA,no,2,dogs1,mary,NA,NA,1,yes,"Your friend runs far ahead of you, and you see him in the distance:",predicative,NA,38,chihuahua,NA,1,NA,NA,some_college,small,NA,english,female,NA,NA,You and your friend see the following:,3,1571837432683,NA,NA,1,NA,NA,NA,congr,custom_main_text2,Your friend says: <br/><b>That chihuahua is small.</b>
602,<i>What do you think Speaker A meant? </i>,NA,The Empire State Building is tall relative to other,NA,NA,17,NA,NA,NA,no,1,NA,linda,1,NA,NA,yes,NA,NA,"<b> Speaker A: ""The Empire State Building is tall.""</b>",59,buildings,n/a,NA,NA,NA,some_college,NA,comp_class_warmup,English,male,NA,NA,In the main trials you will be asked to rephrase something a person said. The utterance will contain a word that is <i>relative</i> and your task is to figure out what it is relative to. <br /> <br /> For example: <br /><br />,1,1571837391888,1,NA,1,NA,NA,"buildings, skyscrapers, houses, constructions (choose one)",NA,comp_class_warmup,NA
602,NA,chihuahua,NA,NA,NA,17,warmup/doberman.png,chihuahua,This is a,no,1,dogs,linda,NA,doberman,NA,yes,Please label the pictures below.,NA,NA,59,NA,n/a,NA,warmup/chihuahua.jpg,dogs,some_college,NA,NA,English,male,NA,dogs,NA,1,1571837391888,1,This is a,1,These are both,doberman,NA,NA,warmup1,NA
602,NA,sequoia,NA,NA,NA,17,warmup/bonsai.jpg,redwood or sequoia (choose one),This is a,no,1,trees,linda,NA,bonsai,NA,yes,Please label the pictures below.,NA,NA,59,NA,n/a,NA,warmup/sequoia.png,trees,some_college,NA,NA,English,male,NA,trees,NA,2,1571837391888,1,This is a,1,These are both,bonsai,NA,NA,warmup1,NA
602,NA,pug,NA,NA,NA,17,warmup/great-dane.jpg,pug,This is a,no,1,dogs,linda,NA,great dane,NA,yes,Please label the pictures below.,NA,NA,59,NA,n/a,NA,warmup/pug.jpg,dogs,some_college,NA,NA,English,male,NA,dogs,NA,3,1571837391888,1,This is a,1,These are both,labrador,NA,NA,warmup1,NA
602,NA,pug,NA,NA,NA,17,warmup/great-dane.jpg,pug,This is a,no,1,dogs,linda,NA,great dane,NA,yes,Please label the pictures below.,NA,NA,59,NA,n/a,NA,warmup/pug.jpg,dogs,some_college,NA,NA,English,male,NA,dogs,NA,3,1571837391888,2,This is a,1,These are both,great dane,NA,NA,warmup1,NA
602,What do you think your friend meant?,NA,It is small relative to other,images/dog-parade-pug.png,images/pug.png,17,NA,NA,NA,no,1,dogs2,linda,NA,NA,1,yes,"Your friend runs far ahead of you, and you see him in the distance:",predicative,NA,59,pugs,n/a,1,NA,NA,some_college,small,NA,English,male,NA,NA,You and your friend see the following:,1,1571837391888,NA,NA,1,NA,NA,NA,congr,custom_main_text1,Your friend says: <br/><b>That pug is small.</b>
602,What do you think your friend meant?,NA,It is big relative to other,images/dog-parade-doberman.png,images/doberman.png,17,NA,NA,NA,no,1,dogs1,linda,NA,NA,1,yes,"Your friend runs far ahead of you, and you see him in the distance:",predicative,NA,59,dobermans,n/a,1,NA,NA,some_college,big,NA,English,male,NA,NA,You and your friend see the following:,2,1571837391888,NA,NA,1,NA,NA,NA,congr,custom_main_text1,Your friend says: <br/><b>That doberman is big.</b>
602,What do you think your friend meant?,NA,It is small relative to other,images/tree-parade-basic.png,images/bonsai.png,17,NA,NA,NA,no,1,trees,linda,NA,NA,0,yes,"Your friend runs far ahead of you, and you see him in the distance:",predicative,NA,59,trees,n/a,1,NA,NA,some_college,small,NA,English,male,NA,NA,You and your friend see the following:,3,1571837391888,NA,NA,1,NA,NA,NA,basic,custom_main_text1,Your friend says: <br/><b>That bonsai is small.</b>
602,NA,dandelion,NA,NA,NA,17,warmup/sunflower.png,dandelion,This is a,no,1,flowers,linda,NA,sunflower,NA,yes,Please label the pictures below.,NA,NA,59,NA,n/a,NA,warmup/dandelion.jpg,plants,some_college,NA,NA,English,male,NA,flowers,NA,1,1571837391888,1,This is a,1,These are both,sunflower,NA,NA,warmup2,NA
602,NA,dandelion,NA,NA,NA,17,warmup/sunflower.png,dandelion,This is a,no,1,flowers,linda,NA,sunflower,NA,yes,Please label the pictures below.,NA,NA,59,NA,n/a,NA,warmup/dandelion.jpg,flowers,some_college,NA,NA,English,male,NA,flowers,NA,1,1571837391888,2,This is a,1,These are both,sunflower,NA,NA,warmup2,NA
602,NA,swordfish,NA,NA,NA,17,warmup/goldfish.png,swordfish,This is a,no,1,fish,linda,NA,goldfish,NA,yes,Please label the pictures below.,NA,NA,59,NA,n/a,NA,warmup/swordfish.jpg,fish,some_college,NA,NA,English,male,NA,fish,NA,2,1571837391888,1,This is a,1,These are both,goldfish,NA,NA,warmup2,NA
602,NA,hummingbird,NA,NA,NA,17,warmup/eagle.jpg,hummingbird,This is a,no,1,birds,linda,NA,eagle,NA,yes,Please label the pictures below.,NA,NA,59,NA,n/a,NA,warmup/colibri.jpg,birds,some_college,NA,NA,English,male,NA,birds,NA,3,1571837391888,1,This is an,1,These are both,eagle,NA,NA,warmup2,NA
602,What do you think your friend meant?,NA,It is big relative to other,images/bird-parade-eagle.png,images/eagle.png,17,NA,NA,NA,no,1,birds,linda,NA,NA,1,yes,"Your friend runs far ahead of you, and you see him in the distance:",predicative,NA,59,eagles,n/a,1,NA,NA,some_college,big,NA,English,male,NA,NA,You and your friend see the following:,1,1571837391888,NA,NA,1,NA,NA,NA,congr,custom_main_text2,Your friend says: <br/><b>That eagle is big.</b>
602,What do you think your friend meant?,NA,It is small relative to other,images/fish-parade-basic.png,images/goldfish.png,17,NA,NA,NA,no,1,fish,linda,NA,NA,0,yes,"Your friend runs far ahead of you, and you see him in the distance:",predicative,NA,59,fish,n/a,1,NA,NA,some_college,small,NA,English,male,NA,NA,You and your friend see the following:,2,1571837391888,NA,NA,1,NA,NA,NA,basic,custom_main_text2,Your friend says: <br/><b>That goldfish is small.</b>
602,What do you think your friend meant?,NA,It is big relative to other,images/flower-parade-basic.png,images/sunflower.png,17,NA,NA,NA,no,1,flowers,linda,NA,NA,0,yes,"Your friend runs far ahead of you, and you see him in the distance:",predicative,NA,59,flowers,n/a,1,NA,NA,some_college,big,NA,English,male,NA,NA,You and your friend see the following:,3,1571837391888,NA,NA,1,NA,NA,NA,basic,custom_main_text2,Your friend says: <br/><b>That sunflower is big.</b>
601,<i>What do you think Speaker A meant? </i>,NA,The Empire State Building is tall relative to other,NA,NA,17,NA,NA,NA,no,1,NA,jennifer,1,NA,NA,yes,NA,NA,"<b> Speaker A: ""The Empire State Building is tall.""</b>",37,things,NA,NA,NA,NA,graduated_college,NA,comp_class_warmup,English,male,NA,NA,In the main trials you will be asked to rephrase something a person said. The utterance will contain a word that is <i>relative</i> and your task is to figure out what it is relative to. <br /> <br /> For example: <br /><br />,1,1571837452027,1,NA,1.24,NA,NA,"buildings, skyscrapers, houses, constructions (choose one)",NA,comp_class_warmup,NA
601,<i>What do you think Speaker A meant? </i>,NA,The Empire State Building is tall relative to other,NA,NA,17,NA,NA,NA,no,1,NA,jennifer,1,NA,NA,yes,NA,NA,"<b> Speaker A: ""The Empire State Building is tall.""</b>",37,buildings,NA,NA,NA,NA,graduated_college,NA,comp_class_warmup,English,male,NA,NA,In the main trials you will be asked to rephrase something a person said. The utterance will contain a word that is <i>relative</i> and your task is to figure out what it is relative to. <br /> <br /> For example: <br /><br />,1,1571837452027,2,NA,1.24,NA,NA,"buildings, skyscrapers, houses, constructions (choose one)",NA,comp_class_warmup,NA
601,NA,redwood,NA,NA,NA,17,warmup/bonsai.jpg,redwood or sequoia (choose one),This is a,no,1,trees,jennifer,NA,bonsai,NA,yes,Please label the pictures below.,NA,NA,37,NA,NA,NA,warmup/sequoia.png,trees,graduated_college,NA,NA,English,male,NA,trees,NA,1,1571837452027,1,This is a,1.24,These are both,bonsai,NA,NA,warmup1,NA
601,NA,marlin,NA,NA,NA,17,warmup/goldfish.png,swordfish,This is a,no,1,fish,jennifer,NA,goldfish,NA,yes,Please label the pictures below.,NA,NA,37,NA,NA,NA,warmup/swordfish.jpg,fish,graduated_college,NA,NA,English,male,NA,fish,NA,2,1571837452027,1,This is a,1.24,These are both,goldfish,NA,NA,warmup1,NA
601,NA,swordfish,NA,NA,NA,17,warmup/goldfish.png,swordfish,This is a,no,1,fish,jennifer,NA,goldfish,NA,yes,Please label the pictures below.,NA,NA,37,NA,NA,NA,warmup/swordfish.jpg,fish,graduated_college,NA,NA,English,male,NA,fish,NA,2,1571837452027,2,This is a,1.24,These are both,goldfish,NA,NA,warmup1,NA
601,NA,dandelion,NA,NA,NA,17,warmup/sunflower.png,dandelion,This is a,no,1,flowers,jennifer,NA,sunflower,NA,yes,Please label the pictures below.,NA,NA,37,NA,NA,NA,warmup/dandelion.jpg,flowers,graduated_college,NA,NA,English,male,NA,flowers,NA,3,1571837452027,1,This is a,1.24,These are both,sunflower,NA,NA,warmup1,NA
601,What do you think your friend meant?,NA,It is big relative to other,images/fish-parade-basic.png,images/swordfish.png,17,NA,NA,NA,no,1,fish,jennifer,NA,NA,0,yes,"Your friend runs far ahead of you, and you see him in the distance:",predicative,NA,37,fish,NA,1,NA,NA,graduated_college,big,NA,English,male,NA,NA,You and your friend see the following:,1,1571837452027,NA,NA,1.24,NA,NA,NA,basic,custom_main_text1,Your friend says: <br/><b>That swordfish is big.</b>
601,What do you think your friend meant?,NA,It is small relative to other,images/tree-parade-basic.png,images/bonsai.png,17,NA,NA,NA,no,1,trees,jennifer,NA,NA,0,yes,"Your friend runs far ahead of you, and you see him in the distance:",predicative,NA,37,trees,NA,1,NA,NA,graduated_college,small,NA,English,male,NA,NA,You and your friend see the following:,2,1571837452027,NA,NA,1.24,NA,NA,NA,basic,custom_main_text1,Your friend says: <br/><b>That bonsai is small.</b>
601,What do you think your friend meant?,NA,It is small relative to other,images/flower-parade-dandelion.png,images/dandelion.png,17,NA,NA,NA,no,1,flowers,jennifer,NA,NA,1,yes,"Your friend runs far ahead of you, and you see him in the distance:",predicative,NA,37,dandelions,NA,1,NA,NA,graduated_college,small,NA,English,male,NA,NA,You and your friend see the following:,3,1571837452027,NA,NA,1.24,NA,NA,NA,congr,custom_main_text1,Your friend says: <br/><b>That dandelion is small.</b>
601,NA,pug,NA,NA,NA,17,warmup/great-dane.jpg,pug,This is a,no,1,dogs,jennifer,NA,great dane,NA,yes,Please label the pictures below.,NA,NA,37,NA,NA,NA,warmup/pug.jpg,dogs,graduated_college,NA,NA,English,male,NA,dogs,NA,1,1571837452027,1,This is a,1.24,These are both,great dane,NA,NA,warmup2,NA
601,NA,chihuahua,NA,NA,NA,17,warmup/doberman.png,chihuahua,This is a,no,1,dogs,jennifer,NA,doberman,NA,yes,Please label the pictures below.,NA,NA,37,NA,NA,NA,warmup/chihuahua.jpg,dogs,graduated_college,NA,NA,English,male,NA,dogs,NA,2,1571837452027,1,This is a,1.24,These are both,doberman,NA,NA,warmup2,NA
601,NA,hummingbird,NA,NA,NA,17,warmup/eagle.jpg,hummingbird,This is a,no,1,birds,jennifer,NA,eagle,NA,yes,Please label the pictures below.,NA,NA,37,NA,NA,NA,warmup/colibri.jpg,birds,graduated_college,NA,NA,English,male,NA,birds,NA,3,1571837452027,1,This is an,1.24,These are both,eagle,NA,NA,warmup2,NA
601,What do you think your friend meant?,NA,It is big relative to other,images/dog-parade-doberman.png,images/doberman.png,17,NA,NA,NA,no,1,dogs1,jennifer,NA,NA,1,yes,"Your friend runs far ahead of you, and you see him in the distance:",predicative,NA,37,dobermans,NA,1,NA,NA,graduated_college,big,NA,English,male,NA,NA,You and your friend see the following:,1,1571837452027,NA,NA,1.24,NA,NA,NA,congr,custom_main_text2,Your friend says: <br/><b>That doberman is big.</b>
601,What do you think your friend meant?,NA,It is big relative to other,images/bird-parade-eagle.png,images/eagle.png,17,NA,NA,NA,no,1,birds,jennifer,NA,NA,1,yes,"Your friend runs far ahead of you, and you see him in the distance:",predicative,NA,37,eagles,NA,1,NA,NA,graduated_college,big,NA,English,male,NA,NA,You and your friend see the following:,2,1571837452027,NA,NA,1.24,NA,NA,NA,congr,custom_main_text2,Your friend says: <br/><b>That eagle is big.</b>
601,What do you think your friend meant?,NA,It is small relative to other,images/dog-parade-basic2.png,images/pug.png,17,NA,NA,NA,no,1,dogs2,jennifer,NA,NA,0,yes,"Your friend runs far ahead of you, and you see him in the distance:",predicative,NA,37,dogs,NA,1,NA,NA,graduated_college,small,NA,English,male,NA,NA,You and your friend see the following:,3,1571837452027,NA,NA,1.24,NA,NA,NA,basic,custom_main_text2,Your friend says: <br/><b>That pug is small.</b>
600,<i>What do you think Speaker A meant? </i>,NA,The Empire State Building is tall relative to other,NA,NA,17,NA,NA,NA,NA,2,NA,susan,1,NA,NA,yes,NA,NA,"<b> Speaker A: ""The Empire State Building is tall.""</b>",29,buildings,NA,NA,NA,NA,some_college,NA,comp_class_warmup,English,male,NA,NA,In the main trials you will be asked to rephrase something a person said. The utterance will contain a word that is <i>relative</i> and your task is to figure out what it is relative to. <br /> <br /> For example: <br /><br />,1,1571837514113,1,NA,2,NA,NA,"buildings, skyscrapers, houses, constructions (choose one)",NA,comp_class_warmup,NA
600,NA,chihuahua,NA,NA,NA,17,warmup/doberman.png,chihuahua,This is a,NA,2,dogs,susan,NA,doberman,NA,yes,Please label the pictures below.,NA,NA,29,NA,NA,NA,warmup/chihuahua.jpg,dogs,some_college,NA,NA,English,male,NA,dogs,NA,1,1571837514113,1,This is a,2,These are both,doberman,NA,NA,warmup1,NA
600,NA,pug,NA,NA,NA,17,warmup/great-dane.jpg,pug,This is a,NA,2,dogs,susan,NA,great dane,NA,yes,Please label the pictures below.,NA,NA,29,NA,NA,NA,warmup/pug.jpg,bogs,some_college,NA,NA,English,male,NA,dogs,NA,2,1571837514113,1,This is a,2,These are both,great dane,NA,NA,warmup1,NA
600,NA,pug,NA,NA,NA,17,warmup/great-dane.jpg,pug,This is a,NA,2,dogs,susan,NA,great dane,NA,yes,Please label the pictures below.,NA,NA,29,NA,NA,NA,warmup/pug.jpg,dogs,some_college,NA,NA,English,male,NA,dogs,NA,2,1571837514113,2,This is a,2,These are both,great dane,NA,NA,warmup1,NA
600,NA,tree,NA,NA,NA,17,warmup/bonsai.jpg,redwood or sequoia (choose one),This is a,NA,2,trees,susan,NA,bonsai,NA,yes,Please label the pictures below.,NA,NA,29,NA,NA,NA,warmup/sequoia.png,plants,some_college,NA,NA,English,male,NA,trees,NA,3,1571837514113,1,This is a,2,These are both,bonzai,NA,NA,warmup1,NA
600,NA,redwood,NA,NA,NA,17,warmup/bonsai.jpg,redwood or sequoia (choose one),This is a,NA,2,trees,susan,NA,bonsai,NA,yes,Please label the pictures below.,NA,NA,29,NA,NA,NA,warmup/sequoia.png,trees,some_college,NA,NA,English,male,NA,trees,NA,3,1571837514113,2,This is a,2,These are both,bonsai,NA,NA,warmup1,NA
600,What do you think your friend meant?,NA,It is small relative to other,images/tree-parade-bonsai.png,images/bonsai.png,17,NA,NA,NA,NA,2,trees,susan,NA,NA,1,yes,"Your friend runs far ahead of you, and you see him in the distance:",predicative,NA,29,trees,NA,1,NA,NA,some_college,small,NA,English,male,NA,NA,You and your friend see the following:,1,1571837514113,NA,NA,2,NA,NA,NA,congr,custom_main_text1,Your friend says: <br/><b>That bonsai is small.</b>
600,What do you think your friend meant?,NA,It is big relative to other,images/dog-parade-basic.png,images/doberman.png,17,NA,NA,NA,NA,2,dogs1,susan,NA,NA,0,yes,"Your friend runs far ahead of you, and you see him in the distance:",predicative,NA,29,dogs,NA,1,NA,NA,some_college,big,NA,English,male,NA,NA,You and your friend see the following:,2,1571837514113,NA,NA,2,NA,NA,NA,basic,custom_main_text1,Your friend says: <br/><b>That doberman is big.</b>
600,What do you think your friend meant?,NA,It is small relative to other,images/dog-parade-basic2.png,images/pug.png,17,NA,NA,NA,NA,2,dogs2,susan,NA,NA,0,yes,"Your friend runs far ahead of you, and you see him in the distance:",predicative,NA,29,dogs,NA,1,NA,NA,some_college,small,NA,English,male,NA,NA,You and your friend see the following:,3,1571837514113,NA,NA,2,NA,NA,NA,basic,custom_main_text1,Your friend says: <br/><b>That pug is small.</b>
600,NA,weed,NA,NA,NA,17,warmup/sunflower.png,dandelion,This is a,NA,2,flowers,susan,NA,sunflower,NA,yes,Please label the pictures below.,NA,NA,29,NA,NA,NA,warmup/dandelion.jpg,plants,some_college,NA,NA,English,male,NA,flowers,NA,1,1571837514113,1,This is a,2,These are both,sunflower,NA,NA,warmup2,NA
600,NA,dandelion,NA,NA,NA,17,warmup/sunflower.png,dandelion,This is a,NA,2,flowers,susan,NA,sunflower,NA,yes,Please label the pictures below.,NA,NA,29,NA,NA,NA,warmup/dandelion.jpg,flowers,some_college,NA,NA,English,male,NA,flowers,NA,1,1571837514113,2,This is a,2,These are both,sunflower,NA,NA,warmup2,NA
600,NA,marlin,NA,NA,NA,17,warmup/goldfish.png,swordfish,This is a,NA,2,fish,susan,NA,goldfish,NA,yes,Please label the pictures below.,NA,NA,29,NA,NA,NA,warmup/swordfish.jpg,fish,some_college,NA,NA,English,male,NA,fish,NA,2,1571837514113,1,This is a,2,These are both,goldfish,NA,NA,warmup2,NA
600,NA,swordfish,NA,NA,NA,17,warmup/goldfish.png,swordfish,This is a,NA,2,fish,susan,NA,goldfish,NA,yes,Please label the pictures below.,NA,NA,29,NA,NA,NA,warmup/swordfish.jpg,fish,some_college,NA,NA,English,male,NA,fish,NA,2,1571837514113,2,This is a,2,These are both,goldfish,NA,NA,warmup2,NA
600,NA,hummingbird,NA,NA,NA,17,warmup/eagle.jpg,hummingbird,This is a,NA,2,birds,susan,NA,eagle,NA,yes,Please label the pictures below.,NA,NA,29,NA,NA,NA,warmup/colibri.jpg,birds,some_college,NA,NA,English,male,NA,birds,NA,3,1571837514113,1,This is an,2,These are both,eagle,NA,NA,warmup2,NA
600,What do you think your friend meant?,NA,It is big relative to other,images/flower-parade-basic.png,images/sunflower.png,17,NA,NA,NA,NA,2,flowers,susan,NA,NA,0,yes,"Your friend runs far ahead of you, and you see him in the distance:",predicative,NA,29,flowers,NA,1,NA,NA,some_college,big,NA,English,male,NA,NA,You and your friend see the following:,1,1571837514113,NA,NA,2,NA,NA,NA,basic,custom_main_text2,Your friend says: <br/><b>That sunflower is big.</b>
600,What do you think your friend meant?,NA,It is small relative to other,images/fish-parade-goldfish.png,images/goldfish.png,17,NA,NA,NA,NA,2,fish,susan,NA,NA,1,yes,"Your friend runs far ahead of you, and you see him in the distance:",predicative,NA,29,goldfish,NA,1,NA,NA,some_college,small,NA,English,male,NA,NA,You and your friend see the following:,2,1571837514113,NA,NA,2,NA,NA,NA,congr,custom_main_text2,Your friend says: <br/><b>That goldfish is small.</b>
600,What do you think your friend meant?,NA,It is big relative to other,images/bird-parade-eagle.png,images/eagle.png,17,NA,NA,NA,NA,2,birds,susan,NA,NA,1,yes,"Your friend runs far ahead of you, and you see him in the distance:",predicative,NA,29,eagles,NA,1,NA,NA,some_college,big,NA,English,male,NA,NA,You and your friend see the following:,3,1571837514113,NA,NA,2,NA,NA,NA,congr,custom_main_text2,Your friend says: <br/><b>That eagle is big.</b>
598,<i>What do you think Speaker A meant? </i>,NA,The Empire State Building is tall relative to other,NA,NA,17,NA,NA,NA,none,1,NA,margaret,1,NA,NA,yes,NA,NA,"<b> Speaker A: ""The Empire State Building is tall.""</b>",58,buildings,none,NA,NA,NA,graduated_college,NA,comp_class_warmup,English,male,NA,NA,In the main trials you will be asked to rephrase something a person said. The utterance will contain a word that is <i>relative</i> and your task is to figure out what it is relative to. <br /> <br /> For example: <br /><br />,1,1571836774164,1,NA,1.25,NA,NA,"buildings, skyscrapers, houses, constructions (choose one)",NA,comp_class_warmup,NA
