submission_id,question,response1,sentence_left,context_picture,experiment_id,picture2,correct1,question1,problems,enjoyment,item,botresponse,trials,correct2,pic_spec,understand,text,condition,sentence,age,response,comments,ref_spec,picture1,response3,education,target_size,name,languages,sex,RT,correct3,context,trial_number,startTime,attempts,question3,fairprice,question2,response2,correct,adj_cond,trial_name
491,<i>What do you think Speaker A meant? </i>,NA,The Empire State Building is tall relative to other,NA,13,NA,NA,NA,NA,1,NA,jessica,1,NA,NA,yes,NA,NA,"<b> Speaker A: ""The Empire State Building is tall.""</b>",23,buildings,NA,NA,NA,NA,graduated_college,NA,comp_class_warmup,English,female,NA,NA,In the main trials you will be asked to rephrase something a person said. The utterance will contain a word that is <i>relative</i> and your task is to figure out what it is relative to. <br /> <br /> For example: <br /><br />,1,1567793426562,1,NA,0.8,NA,NA,"buildings, scyscrapers, houses, constructions (choose one)",NA,comp_class_warmup
491,NA,dandelion,NA,NA,13,warmup/sunflower.png,dandelion,This is a,NA,1,flowers,jessica,NA,sunflower,NA,yes,Please label the pictures below.,NA,NA,23,NA,NA,NA,warmup/dandelion.jpg,flowers,graduated_college,NA,NA,English,female,NA,flowers,NA,1,1567793426562,1,This is a,0.8,These are both,sunflower,NA,NA,warmup1
491,NA,swordfish,NA,NA,13,warmup/goldfish.png,swordfish,This is a,NA,1,fish,jessica,NA,goldfish,NA,yes,Please label the pictures below.,NA,NA,23,NA,NA,NA,warmup/swordfish.jpg,fish,graduated_college,NA,NA,English,female,NA,fish,NA,2,1567793426562,1,This is a,0.8,These are both,goldfish,NA,NA,warmup1
491,NA,Chihuahua,NA,NA,13,warmup/doberman.png,chihuahua,This is a,NA,1,dogs,jessica,NA,doberman,NA,yes,Please label the pictures below.,NA,NA,23,NA,NA,NA,warmup/chihuahua.jpg,dogs,graduated_college,NA,NA,English,female,NA,dogs,NA,3,1567793426562,1,This is a,0.8,These are both,doberman,NA,NA,warmup1
491,Please rephrase your friend's comment.,NA,It is small relative to other,images/fish-parade-goldfish.png,13,NA,NA,NA,NA,1,fish,jessica,NA,NA,1,yes,"You and your friend see another member of the group <br /> (not pictured), and your friend says: <br/><b>That's a small goldfish.</b>",prenominal,NA,23,goldfish,NA,0,NA,NA,graduated_college,small,NA,English,female,NA,NA,You and your friend see the following:,1,1567793426562,NA,NA,0.8,NA,NA,NA,congr,custom_main_text1
491,What do you think your friend meant?,NA,It is big relative to other,images/flower-parade-basic.png,13,NA,NA,NA,NA,1,flowers,jessica,NA,NA,0,yes,"You and your friend see another member of the group <br /> (not pictured), and your friend says: <br/><b>That's a big sunflower.</b>",prenominal,NA,23,flowers,NA,0,NA,NA,graduated_college,big,NA,English,female,NA,NA,You and your friend see the following:,2,1567793426562,NA,NA,0.8,NA,NA,NA,basic,custom_main_text1
491,What do you think your friend meant?,NA,It is small relative to other,images/dog-parade-doberman.png,13,NA,NA,NA,NA,1,dogs1,jessica,NA,NA,2,yes,"You and your friend see another member of the group <br /> (not pictured), and your friend says: <br/><b>That's a small one.</b>",prenominal,NA,23,dobermans,NA,1,NA,NA,graduated_college,small,NA,English,female,NA,NA,You and your friend see the following:,3,1567793426562,NA,NA,0.8,NA,NA,NA,incongr,custom_main_text1
491,NA,hummingbird,NA,NA,13,warmup/eagle.jpg,hummingbird,This is a,NA,1,birds,jessica,NA,eagle,NA,yes,Please label the pictures below.,NA,NA,23,NA,NA,NA,warmup/colibri.jpg,birds,graduated_college,NA,NA,English,female,NA,birds,NA,1,1567793426562,1,This is an,0.8,These are both,eagle,NA,NA,warmup2
491,NA,pug,NA,NA,13,warmup/great-dane.jpg,pug,This is a,NA,1,dogs,jessica,NA,great dane,NA,yes,Please label the pictures below.,NA,NA,23,NA,NA,NA,warmup/pug.jpg,dog,graduated_college,NA,NA,English,female,NA,dogs,NA,2,1567793426562,1,This is a,0.8,These are both,greyhound,NA,NA,warmup2
491,NA,pug,NA,NA,13,warmup/great-dane.jpg,pug,This is a,NA,1,dogs,jessica,NA,great dane,NA,yes,Please label the pictures below.,NA,NA,23,NA,NA,NA,warmup/pug.jpg,dogs,graduated_college,NA,NA,English,female,NA,dogs,NA,2,1567793426562,2,This is a,0.8,These are both,great dane,NA,NA,warmup2
491,NA,pine,NA,NA,13,warmup/bonsai.jpg,redwood or sequoia (choose one),This is a,NA,1,trees,jessica,NA,bonsai,NA,yes,Please label the pictures below.,NA,NA,23,NA,NA,NA,warmup/sequoia.png,trees,graduated_college,NA,NA,English,female,NA,trees,NA,3,1567793426562,1,This is a,0.8,These are both,bonsai,NA,NA,warmup2
491,NA,sequoia,NA,NA,13,warmup/bonsai.jpg,redwood or sequoia (choose one),This is a,NA,1,trees,jessica,NA,bonsai,NA,yes,Please label the pictures below.,NA,NA,23,NA,NA,NA,warmup/sequoia.png,trees,graduated_college,NA,NA,English,female,NA,trees,NA,3,1567793426562,2,This is a,0.8,These are both,bonsai,NA,NA,warmup2
491,What do you think your friend meant?,NA,It is big relative to other,images/bird-parade-basic.png,13,NA,NA,NA,NA,1,birds,jessica,NA,NA,0,yes,"You and your friend see another member of the group <br /> (not pictured), and your friend says: <br/><b>That's a big eagle.</b>",prenominal,NA,23,birds,NA,0,NA,NA,graduated_college,big,NA,English,female,NA,NA,You and your friend see the following:,1,1567793426562,NA,NA,0.8,NA,NA,NA,basic,custom_main_text2
491,What do you think your friend meant?,NA,It is small relative to other,images/tree-parade-bonsai.png,13,NA,NA,NA,NA,1,trees,jessica,NA,NA,1,yes,"You and your friend see another member of the group <br /> (not pictured), and your friend says: <br/><b>That's a small one.</b>",prenominal,NA,23,bonsai,NA,1,NA,NA,graduated_college,small,NA,English,female,NA,NA,You and your friend see the following:,2,1567793426562,NA,NA,0.8,NA,NA,NA,congr,custom_main_text2
491,What do you think your friend meant?,NA,It is small relative to other,images/dog-parade-basic2.png,13,NA,NA,NA,NA,1,dogs2,jessica,NA,NA,0,yes,"You and your friend see another member of the group <br /> (not pictured), and your friend says: <br/><b>That's a small one.</b>",prenominal,NA,23,dogs,NA,1,NA,NA,graduated_college,small,NA,English,female,NA,NA,You and your friend see the following:,3,1567793426562,NA,NA,0.8,NA,NA,NA,basic,custom_main_text2
489,<i>What do you think Speaker A meant? </i>,NA,The Empire State Building is tall relative to other,NA,13,NA,NA,NA,I had to reload because a picture didn't load......,2,NA,jennifer,1,NA,NA,yes,NA,NA,"<b> Speaker A: ""The Empire State Building is tall.""</b>",64,buildings,NA,NA,NA,NA,some_college,NA,comp_class_warmup,English,female,NA,NA,In the main trials you will be asked to rephrase something a person said. The utterance will contain a word that is <i>relative</i> and your task is to figure out what it is relative to. <br /> <br /> For example: <br /><br />,1,1567792328184,1,NA,1,NA,NA,"buildings, scyscrapers, houses, constructions (choose one)",NA,comp_class_warmup
489,NA,hummingbird,NA,NA,13,warmup/eagle.jpg,hummingbird,This is a,I had to reload because a picture didn't load......,2,birds,jennifer,NA,eagle,NA,yes,Please label the pictures below.,NA,NA,64,NA,NA,NA,warmup/colibri.jpg,birds,some_college,NA,NA,English,female,NA,birds,NA,1,1567792328184,1,This is an,1,These are both,eagle,NA,NA,warmup1
489,NA,pine,NA,NA,13,warmup/bonsai.jpg,redwood or sequoia (choose one),This is a,I had to reload because a picture didn't load......,2,trees,jennifer,NA,bonsai,NA,yes,Please label the pictures below.,NA,NA,64,NA,NA,NA,warmup/sequoia.png,trees,some_college,NA,NA,English,female,NA,trees,NA,2,1567792328184,1,This is a,1,These are both,bonsai,NA,NA,warmup1
489,NA,sequoia,NA,NA,13,warmup/bonsai.jpg,redwood or sequoia (choose one),This is a,I had to reload because a picture didn't load......,2,trees,jennifer,NA,bonsai,NA,yes,Please label the pictures below.,NA,NA,64,NA,NA,NA,warmup/sequoia.png,trees,some_college,NA,NA,English,female,NA,trees,NA,2,1567792328184,2,This is a,1,These are both,bonsai,NA,NA,warmup1
489,NA,bulldog,NA,NA,13,warmup/great-dane.jpg,pug,This is a,I had to reload because a picture didn't load......,2,dogs,jennifer,NA,great dane,NA,yes,Please label the pictures below.,NA,NA,64,NA,NA,NA,warmup/pug.jpg,dogs,some_college,NA,NA,English,female,NA,dogs,NA,3,1567792328184,1,This is a,1,These are both,great dane,NA,NA,warmup1
489,NA,pug,NA,NA,13,warmup/great-dane.jpg,pug,This is a,I had to reload because a picture didn't load......,2,dogs,jennifer,NA,great dane,NA,yes,Please label the pictures below.,NA,NA,64,NA,NA,NA,warmup/pug.jpg,dogs,some_college,NA,NA,English,female,NA,dogs,NA,3,1567792328184,2,This is a,1,These are both,great dane,NA,NA,warmup1
489,What do you think your friend meant?,NA,It is small relative to other,images/dog-parade-great-dane.png,13,NA,NA,NA,I had to reload because a picture didn't load......,2,dogs2,jennifer,NA,NA,2,yes,"You and your friend see another member of the group <br /> (not pictured), and your friend says: <br/><b>That's a small great dane.</b>",prenominal,NA,64,great danes,NA,0,NA,NA,some_college,small,NA,English,female,NA,NA,You and your friend see the following:,1,1567792328184,NA,NA,1,NA,NA,NA,incongr,custom_main_text1
489,What do you think your friend meant?,NA,It is small relative to other,images/bird-parade-hummingbird.png,13,NA,NA,NA,I had to reload because a picture didn't load......,2,birds,jennifer,NA,NA,1,yes,"You and your friend see another member of the group <br /> (not pictured), and your friend says: <br/><b>That's a small one.</b>",prenominal,NA,64,hummingbirds,NA,1,NA,NA,some_college,small,NA,English,female,NA,NA,You and your friend see the following:,2,1567792328184,NA,NA,1,NA,NA,NA,congr,custom_main_text1
489,What do you think your friend meant?,NA,It is small relative to other,images/tree-parade-basic.png,13,NA,NA,NA,I had to reload because a picture didn't load......,2,trees,jennifer,NA,NA,0,yes,"You and your friend see another member of the group <br /> (not pictured), and your friend says: <br/><b>That's a small bonsai.</b>",prenominal,NA,64,bonsais,NA,0,NA,NA,some_college,small,NA,English,female,NA,NA,You and your friend see the following:,3,1567792328184,NA,NA,1,NA,NA,NA,basic,custom_main_text1
489,NA,shark,NA,NA,13,warmup/goldfish.png,swordfish,This is a,I had to reload because a picture didn't load......,2,fish,jennifer,NA,goldfish,NA,yes,Please label the pictures below.,NA,NA,64,NA,NA,NA,warmup/swordfish.jpg,fish,some_college,NA,NA,English,female,NA,fish,NA,1,1567792328184,1,This is a,1,These are both,goldfish,NA,NA,warmup2
489,NA,swordfish,NA,NA,13,warmup/goldfish.png,swordfish,This is a,I had to reload because a picture didn't load......,2,fish,jennifer,NA,goldfish,NA,yes,Please label the pictures below.,NA,NA,64,NA,NA,NA,warmup/swordfish.jpg,fish,some_college,NA,NA,English,female,NA,fish,NA,1,1567792328184,2,This is a,1,These are both,goldfish,NA,NA,warmup2
489,NA,dandelion,NA,NA,13,warmup/sunflower.png,dandelion,This is a,I had to reload because a picture didn't load......,2,flowers,jennifer,NA,sunflower,NA,yes,Please label the pictures below.,NA,NA,64,NA,NA,NA,warmup/dandelion.jpg,flowers,some_college,NA,NA,English,female,NA,flowers,NA,2,1567792328184,1,This is a,1,These are both,sunflower,NA,NA,warmup2
489,NA,chihuahua,NA,NA,13,warmup/doberman.png,chihuahua,This is a,I had to reload because a picture didn't load......,2,dogs,jennifer,NA,doberman,NA,yes,Please label the pictures below.,NA,NA,64,NA,NA,NA,warmup/chihuahua.jpg,dogs,some_college,NA,NA,English,female,NA,dogs,NA,3,1567792328184,1,This is a,1,These are both,doberman,NA,NA,warmup2
489,What do you think your friend meant?,NA,It is big relative to other,images/dog-parade-basic.png,13,NA,NA,NA,I had to reload because a picture didn't load......,2,dogs1,jennifer,NA,NA,0,yes,"You and your friend see another member of the group <br /> (not pictured), and your friend says: <br/><b>That's a big doberman.</b>",prenominal,NA,64,dobermans,NA,0,NA,NA,some_college,big,NA,English,female,NA,NA,You and your friend see the following:,1,1567792328184,NA,NA,1,NA,NA,NA,basic,custom_main_text2
489,Please rephrase your friend's comment.,NA,It is big relative to other,images/fish-parade-basic.png,13,NA,NA,NA,I had to reload because a picture didn't load......,2,fish,jennifer,NA,NA,0,yes,"You and your friend see another member of the group <br /> (not pictured), and your friend says: <br/><b>That's a big one.</b>",prenominal,NA,64,swordfish,NA,1,NA,NA,some_college,big,NA,English,female,NA,NA,You and your friend see the following:,2,1567792328184,NA,NA,1,NA,NA,NA,basic,custom_main_text2
489,What do you think your friend meant?,NA,It is big relative to other,images/flower-parade-dandelion.png,13,NA,NA,NA,I had to reload because a picture didn't load......,2,flowers,jennifer,NA,NA,2,yes,"You and your friend see another member of the group <br /> (not pictured), and your friend says: <br/><b>That's a big one.</b>",prenominal,NA,64,dandelions,NA,1,NA,NA,some_college,big,NA,English,female,NA,NA,You and your friend see the following:,3,1567792328184,NA,NA,1,NA,NA,NA,incongr,custom_main_text2
487,<i>What do you think Speaker A meant? </i>,NA,The Empire State Building is tall relative to other,NA,13,NA,NA,NA,none.,2,NA,jennifer,1,NA,NA,yes,NA,NA,"<b> Speaker A: ""The Empire State Building is tall.""</b>",48,buildings,NA,NA,NA,NA,some_college,NA,comp_class_warmup,english,female,NA,NA,In the main trials you will be asked to rephrase something a person said. The utterance will contain a word that is <i>relative</i> and your task is to figure out what it is relative to. <br /> <br /> For example: <br /><br />,1,1567791733365,1,NA,2,NA,NA,"buildings, scyscrapers, houses, constructions (choose one)",NA,comp_class_warmup
487,NA,tree,NA,NA,13,warmup/bonsai.jpg,redwood or sequoia (choose one),This is a,none.,2,trees,jennifer,NA,bonsai,NA,yes,Please label the pictures below.,NA,NA,48,NA,NA,NA,warmup/sequoia.png,green,some_college,NA,NA,english,female,NA,trees,NA,1,1567791733365,1,This is a,2,These are both,plant,NA,NA,warmup1
487,NA,tree,NA,NA,13,warmup/bonsai.jpg,redwood or sequoia (choose one),This is a,none.,2,trees,jennifer,NA,bonsai,NA,yes,Please label the pictures below.,NA,NA,48,NA,NA,NA,warmup/sequoia.png,trees,some_college,NA,NA,english,female,NA,trees,NA,1,1567791733365,2,This is a,2,These are both,plant,NA,NA,warmup1
487,NA,tree,NA,NA,13,warmup/bonsai.jpg,redwood or sequoia (choose one),This is a,none.,2,trees,jennifer,NA,bonsai,NA,yes,Please label the pictures below.,NA,NA,48,NA,NA,NA,warmup/sequoia.png,trees,some_college,NA,NA,english,female,NA,trees,NA,1,1567791733365,3,This is a,2,These are both,tree,NA,NA,warmup1
487,NA,tree,NA,NA,13,warmup/bonsai.jpg,redwood or sequoia (choose one),This is a,none.,2,trees,jennifer,NA,bonsai,NA,yes,Please label the pictures below.,NA,NA,48,NA,NA,NA,warmup/sequoia.png,trees,some_college,NA,NA,english,female,NA,trees,NA,1,1567791733365,4,This is a,2,These are both,tree,NA,NA,warmup1
487,NA,redwood,NA,NA,13,warmup/bonsai.jpg,redwood or sequoia (choose one),This is a,none.,2,trees,jennifer,NA,bonsai,NA,yes,Please label the pictures below.,NA,NA,48,NA,NA,NA,warmup/sequoia.png,trees,some_college,NA,NA,english,female,NA,trees,NA,1,1567791733365,5,This is a,2,These are both,bonsai,NA,NA,warmup1
487,NA,sun flower,NA,NA,13,warmup/sunflower.png,dandelion,This is a,none.,2,flowers,jennifer,NA,sunflower,NA,yes,Please label the pictures below.,NA,NA,48,NA,NA,NA,warmup/dandelion.jpg,flowers,some_college,NA,NA,english,female,NA,flowers,NA,2,1567791733365,1,This is a,2,These are both,sun flower,NA,NA,warmup1
487,NA,dandelion,NA,NA,13,warmup/sunflower.png,dandelion,This is a,none.,2,flowers,jennifer,NA,sunflower,NA,yes,Please label the pictures below.,NA,NA,48,NA,NA,NA,warmup/dandelion.jpg,flowers,some_college,NA,NA,english,female,NA,flowers,NA,2,1567791733365,2,This is a,2,These are both,sunflower,NA,NA,warmup1
487,NA,dog,NA,NA,13,warmup/doberman.png,chihuahua,This is a,none.,2,dogs,jennifer,NA,doberman,NA,yes,Please label the pictures below.,NA,NA,48,NA,NA,NA,warmup/chihuahua.jpg,dogs,some_college,NA,NA,english,female,NA,dogs,NA,3,1567791733365,1,This is a,2,These are both,dog,NA,NA,warmup1
487,NA,chihuahua,NA,NA,13,warmup/doberman.png,chihuahua,This is a,none.,2,dogs,jennifer,NA,doberman,NA,yes,Please label the pictures below.,NA,NA,48,NA,NA,NA,warmup/chihuahua.jpg,dogs,some_college,NA,NA,english,female,NA,dogs,NA,3,1567791733365,2,This is a,2,These are both,doberman,NA,NA,warmup1
487,What do you think your friend meant?,NA,It is small relative to other,images/flower-parade-dandelion.png,13,NA,NA,NA,none.,2,flowers,jennifer,NA,NA,1,yes,"You and your friend see another member of the group <br /> (not pictured), and your friend says: <br/><b>That's a small one.</b>",prenominal,NA,48,flowers,NA,1,NA,NA,some_college,small,NA,english,female,NA,NA,You and your friend see the following:,1,1567791733365,NA,NA,2,NA,NA,NA,congr,custom_main_text1
487,What do you think your friend meant?,NA,It is big relative to other,images/dog-parade-doberman.png,13,NA,NA,NA,none.,2,dogs1,jennifer,NA,NA,1,yes,"You and your friend see another member of the group <br /> (not pictured), and your friend says: <br/><b>That's a big one.</b>",prenominal,NA,48,doberman's,NA,1,NA,NA,some_college,big,NA,english,female,NA,NA,You and your friend see the following:,2,1567791733365,NA,NA,2,NA,NA,NA,congr,custom_main_text1
487,What do you think your friend meant?,NA,It is big relative to other,images/tree-parade-basic.png,13,NA,NA,NA,none.,2,trees,jennifer,NA,NA,0,yes,"You and your friend see another member of the group <br /> (not pictured), and your friend says: <br/><b>That's a big one.</b>",prenominal,NA,48,tree's,NA,1,NA,NA,some_college,big,NA,english,female,NA,NA,You and your friend see the following:,3,1567791733365,NA,NA,2,NA,NA,NA,basic,custom_main_text1
487,NA,bull dog,NA,NA,13,warmup/great-dane.jpg,pug,This is a,none.,2,dogs,jennifer,NA,great dane,NA,yes,Please label the pictures below.,NA,NA,48,NA,NA,NA,warmup/pug.jpg,dogs,some_college,NA,NA,english,female,NA,dogs,NA,1,1567791733365,1,This is a,2,These are both,dog,NA,NA,warmup2
487,NA,pug,NA,NA,13,warmup/great-dane.jpg,pug,This is a,none.,2,dogs,jennifer,NA,great dane,NA,yes,Please label the pictures below.,NA,NA,48,NA,NA,NA,warmup/pug.jpg,dogs,some_college,NA,NA,english,female,NA,dogs,NA,1,1567791733365,2,This is a,2,These are both,great dane,NA,NA,warmup2
487,NA,humming bird,NA,NA,13,warmup/eagle.jpg,hummingbird,This is a,none.,2,birds,jennifer,NA,eagle,NA,yes,Please label the pictures below.,NA,NA,48,NA,NA,NA,warmup/colibri.jpg,birds,some_college,NA,NA,english,female,NA,birds,NA,2,1567791733365,1,This is an,2,These are both,eagle,NA,NA,warmup2
487,NA,hummingbird,NA,NA,13,warmup/eagle.jpg,hummingbird,This is a,none.,2,birds,jennifer,NA,eagle,NA,yes,Please label the pictures below.,NA,NA,48,NA,NA,NA,warmup/colibri.jpg,birds,some_college,NA,NA,english,female,NA,birds,NA,2,1567791733365,2,This is an,2,These are both,eagle,NA,NA,warmup2
487,NA,shark,NA,NA,13,warmup/goldfish.png,swordfish,This is a,none.,2,fish,jennifer,NA,goldfish,NA,yes,Please label the pictures below.,NA,NA,48,NA,NA,NA,warmup/swordfish.jpg,fish,some_college,NA,NA,english,female,NA,fish,NA,3,1567791733365,1,This is a,2,These are both,goldfish,NA,NA,warmup2
487,NA,swordfish,NA,NA,13,warmup/goldfish.png,swordfish,This is a,none.,2,fish,jennifer,NA,goldfish,NA,yes,Please label the pictures below.,NA,NA,48,NA,NA,NA,warmup/swordfish.jpg,fish,some_college,NA,NA,english,female,NA,fish,NA,3,1567791733365,2,This is a,2,These are both,goldfish,NA,NA,warmup2
487,What do you think your friend meant?,NA,It is small relative to other,images/dog-parade-basic2.png,13,NA,NA,NA,none.,2,dogs2,jennifer,NA,NA,0,yes,"You and your friend see another member of the group <br /> (not pictured), and your friend says: <br/><b>That's a small pug.</b>",prenominal,NA,48,dogs,NA,0,NA,NA,some_college,small,NA,english,female,NA,NA,You and your friend see the following:,1,1567791733365,NA,NA,2,NA,NA,NA,basic,custom_main_text2
487,Please rephrase your friend's comment.,NA,It is small relative to other,images/fish-parade-swordfish.png,13,NA,NA,NA,none.,2,fish,jennifer,NA,NA,2,yes,"You and your friend see another member of the group <br /> (not pictured), and your friend says: <br/><b>That's a small swordfish.</b>",prenominal,NA,48,fish,NA,0,NA,NA,some_college,small,NA,english,female,NA,NA,You and your friend see the following:,2,1567791733365,NA,NA,2,NA,NA,NA,incongr,custom_main_text2
487,What do you think your friend meant?,NA,It is small relative to other,images/bird-parade-basic.png,13,NA,NA,NA,none.,2,birds,jennifer,NA,NA,0,yes,"You and your friend see another member of the group <br /> (not pictured), and your friend says: <br/><b>That's a small hummingbird.</b>",prenominal,NA,48,bird,NA,0,NA,NA,some_college,small,NA,english,female,NA,NA,You and your friend see the following:,3,1567791733365,NA,NA,2,NA,NA,NA,basic,custom_main_text2
486,<i>What do you think Speaker A meant? </i>,NA,The Empire State Building is tall relative to other,NA,13,NA,NA,NA,no,2,NA,Patricia,1,NA,NA,yes,NA,NA,"<b> Speaker A: ""The Empire State Building is tall.""</b>",34,Buildings,NA,NA,NA,NA,graduated_college,NA,comp_class_warmup,English,male,NA,NA,In the main trials you will be asked to rephrase something a person said. The utterance will contain a word that is <i>relative</i> and your task is to figure out what it is relative to. <br /> <br /> For example: <br /><br />,1,1567791774285,1,NA,1,NA,NA,"buildings, scyscrapers, houses, constructions (choose one)",NA,comp_class_warmup
486,NA,sequoia,NA,NA,13,warmup/bonsai.jpg,redwood or sequoia (choose one),This is a,no,2,trees,Patricia,NA,bonsai,NA,yes,Please label the pictures below.,NA,NA,34,NA,NA,NA,warmup/sequoia.png,trees,graduated_college,NA,NA,English,male,NA,trees,NA,1,1567791774285,1,This is a,1,These are both,Bonsai,NA,NA,warmup1
486,NA,hummingbird,NA,NA,13,warmup/eagle.jpg,hummingbird,This is a,no,2,birds,Patricia,NA,eagle,NA,yes,Please label the pictures below.,NA,NA,34,NA,NA,NA,warmup/colibri.jpg,birds,graduated_college,NA,NA,English,male,NA,birds,NA,2,1567791774285,1,This is an,1,These are both,eagle,NA,NA,warmup1
486,NA,black marlin,NA,NA,13,warmup/goldfish.png,swordfish,This is a,no,2,fish,Patricia,NA,goldfish,NA,yes,Please label the pictures below.,NA,NA,34,NA,NA,NA,warmup/swordfish.jpg,fish,graduated_college,NA,NA,English,male,NA,fish,NA,3,1567791774285,1,This is a,1,These are both,goldfish,NA,NA,warmup1
486,NA,swordfish,NA,NA,13,warmup/goldfish.png,swordfish,This is a,no,2,fish,Patricia,NA,goldfish,NA,yes,Please label the pictures below.,NA,NA,34,NA,NA,NA,warmup/swordfish.jpg,fish,graduated_college,NA,NA,English,male,NA,fish,NA,3,1567791774285,2,This is a,1,These are both,goldfish,NA,NA,warmup1
486,What do you think your friend meant?,NA,It is small relative to other,images/bird-parade-hummingbird.png,13,NA,NA,NA,no,2,birds,Patricia,NA,NA,1,yes,"You and your friend see another member of the group <br /> (not pictured), and your friend says: <br/><b>That's a small one.</b>",prenominal,NA,34,birds,NA,1,NA,NA,graduated_college,small,NA,English,male,NA,NA,You and your friend see the following:,1,1567791774285,NA,NA,1,NA,NA,NA,congr,custom_main_text1
486,What do you think your friend meant?,NA,It is small relative to other,images/tree-parade-basic.png,13,NA,NA,NA,no,2,trees,Patricia,NA,NA,0,yes,"You and your friend see another member of the group <br /> (not pictured), and your friend says: <br/><b>That's a small bonsai.</b>",prenominal,NA,34,trees,NA,0,NA,NA,graduated_college,small,NA,English,male,NA,NA,You and your friend see the following:,2,1567791774285,NA,NA,1,NA,NA,NA,basic,custom_main_text1
486,Please rephrase your friend's comment.,NA,It is big relative to other,images/fish-parade-basic.png,13,NA,NA,NA,no,2,fish,Patricia,NA,NA,0,yes,"You and your friend see another member of the group <br /> (not pictured), and your friend says: <br/><b>That's a big one.</b>",prenominal,NA,34,fishes,NA,1,NA,NA,graduated_college,big,NA,English,male,NA,NA,You and your friend see the following:,3,1567791774285,NA,NA,1,NA,NA,NA,basic,custom_main_text1
486,NA,pug,NA,NA,13,warmup/great-dane.jpg,pug,This is a,no,2,dogs,Patricia,NA,great dane,NA,yes,Please label the pictures below.,NA,NA,34,NA,NA,NA,warmup/pug.jpg,dogs,graduated_college,NA,NA,English,male,NA,dogs,NA,1,1567791774285,1,This is a,1,These are both,doberman,NA,NA,warmup2
486,NA,pug,NA,NA,13,warmup/great-dane.jpg,pug,This is a,no,2,dogs,Patricia,NA,great dane,NA,yes,Please label the pictures below.,NA,NA,34,NA,NA,NA,warmup/pug.jpg,dogs,graduated_college,NA,NA,English,male,NA,dogs,NA,1,1567791774285,2,This is a,1,These are both,great dane,NA,NA,warmup2
486,NA,dandelion,NA,NA,13,warmup/sunflower.png,dandelion,This is a,no,2,flowers,Patricia,NA,sunflower,NA,yes,Please label the pictures below.,NA,NA,34,NA,NA,NA,warmup/dandelion.jpg,flowers,graduated_college,NA,NA,English,male,NA,flowers,NA,2,1567791774285,1,This is a,1,These are both,sunflower,NA,NA,warmup2
486,NA,Chihuahua,NA,NA,13,warmup/doberman.png,chihuahua,This is a,no,2,dogs,Patricia,NA,doberman,NA,yes,Please label the pictures below.,NA,NA,34,NA,NA,NA,warmup/chihuahua.jpg,dogs,graduated_college,NA,NA,English,male,NA,dogs,NA,3,1567791774285,1,This is a,1,These are both,doberman,NA,NA,warmup2
486,What do you think your friend meant?,NA,It is small relative to other,images/dog-parade-great-dane.png,13,NA,NA,NA,no,2,dogs2,Patricia,NA,NA,2,yes,"You and your friend see another member of the group <br /> (not pictured), and your friend says: <br/><b>That's a small one.</b>",prenominal,NA,34,dogs,NA,1,NA,NA,graduated_college,small,NA,English,male,NA,NA,You and your friend see the following:,1,1567791774285,NA,NA,1,NA,NA,NA,incongr,custom_main_text2
486,What do you think your friend meant?,NA,It is small relative to other,images/dog-parade-doberman.png,13,NA,NA,NA,no,2,dogs1,Patricia,NA,NA,2,yes,"You and your friend see another member of the group <br /> (not pictured), and your friend says: <br/><b>That's a small doberman.</b>",prenominal,NA,34,dobermans,NA,0,NA,NA,graduated_college,small,NA,English,male,NA,NA,You and your friend see the following:,2,1567791774285,NA,NA,1,NA,NA,NA,incongr,custom_main_text2
486,What do you think your friend meant?,NA,It is small relative to other,images/flower-parade-basic.png,13,NA,NA,NA,no,2,flowers,Patricia,NA,NA,0,yes,"You and your friend see another member of the group <br /> (not pictured), and your friend says: <br/><b>That's a small dandelion.</b>",prenominal,NA,34,flowers,NA,0,NA,NA,graduated_college,small,NA,English,male,NA,NA,You and your friend see the following:,3,1567791774285,NA,NA,1,NA,NA,NA,basic,custom_main_text2
484,<i>What do you think Speaker A meant? </i>,NA,The Empire State Building is tall relative to other,NA,13,NA,NA,NA,No,1,NA,Sarah,1,NA,NA,yes,NA,NA,"<b> Speaker A: ""The Empire State Building is tall.""</b>",28,buildings,NA,NA,NA,NA,some_college,NA,comp_class_warmup,English,male,NA,NA,In the main trials you will be asked to rephrase something a person said. The utterance will contain a word that is <i>relative</i> and your task is to figure out what it is relative to. <br /> <br /> For example: <br /><br />,1,1567791940921,1,NA,1,NA,NA,"buildings, scyscrapers, houses, constructions (choose one)",NA,comp_class_warmup
484,NA,hummingbird,NA,NA,13,warmup/eagle.jpg,hummingbird,This is a,No,1,birds,Sarah,NA,eagle,NA,yes,Please label the pictures below.,NA,NA,28,NA,NA,NA,warmup/colibri.jpg,birds,some_college,NA,NA,English,male,NA,birds,NA,1,1567791940921,1,This is an,1,These are both,eagle,NA,NA,warmup1
484,NA,pug,NA,NA,13,warmup/great-dane.jpg,pug,This is a,No,1,dogs,Sarah,NA,great dane,NA,yes,Please label the pictures below.,NA,NA,28,NA,NA,NA,warmup/pug.jpg,dogs,some_college,NA,NA,English,male,NA,dogs,NA,2,1567791940921,1,This is a,1,These are both,big dog,NA,NA,warmup1
484,NA,pug,NA,NA,13,warmup/great-dane.jpg,pug,This is a,No,1,dogs,Sarah,NA,great dane,NA,yes,Please label the pictures below.,NA,NA,28,NA,NA,NA,warmup/pug.jpg,dogs,some_college,NA,NA,English,male,NA,dogs,NA,2,1567791940921,2,This is a,1,These are both,great dane,NA,NA,warmup1
484,NA,chihuahah,NA,NA,13,warmup/doberman.png,chihuahua,This is a,No,1,dogs,Sarah,NA,doberman,NA,yes,Please label the pictures below.,NA,NA,28,NA,NA,NA,warmup/chihuahua.jpg,dogs,some_college,NA,NA,English,male,NA,dogs,NA,3,1567791940921,1,This is a,1,These are both,mouser,NA,NA,warmup1
484,NA,chihuahua,NA,NA,13,warmup/doberman.png,chihuahua,This is a,No,1,dogs,Sarah,NA,doberman,NA,yes,Please label the pictures below.,NA,NA,28,NA,NA,NA,warmup/chihuahua.jpg,dogs,some_college,NA,NA,English,male,NA,dogs,NA,3,1567791940921,2,This is a,1,These are both,doberman,NA,NA,warmup1
484,What do you think your friend meant?,NA,It is big relative to other,images/bird-parade-hummingbird.png,13,NA,NA,NA,No,1,birds,Sarah,NA,NA,2,yes,"You and your friend see another member of the group <br /> (not pictured), and your friend says: <br/><b>That's a big hummingbird.</b>",prenominal,NA,28,hummingbirds,NA,0,NA,NA,some_college,big,NA,English,male,NA,NA,You and your friend see the following:,1,1567791940921,NA,NA,1,NA,NA,NA,incongr,custom_main_text1
484,What do you think your friend meant?,NA,It is big relative to other,images/dog-parade-basic.png,13,NA,NA,NA,No,1,dogs1,Sarah,NA,NA,0,yes,"You and your friend see another member of the group <br /> (not pictured), and your friend says: <br/><b>That's a big one.</b>",prenominal,NA,28,dogs,NA,1,NA,NA,some_college,big,NA,English,male,NA,NA,You and your friend see the following:,2,1567791940921,NA,NA,1,NA,NA,NA,basic,custom_main_text1
484,What do you think your friend meant?,NA,It is small relative to other,images/dog-parade-pug.png,13,NA,NA,NA,No,1,dogs2,Sarah,NA,NA,1,yes,"You and your friend see another member of the group <br /> (not pictured), and your friend says: <br/><b>That's a small one.</b>",prenominal,NA,28,dogs,NA,1,NA,NA,some_college,small,NA,English,male,NA,NA,You and your friend see the following:,3,1567791940921,NA,NA,1,NA,NA,NA,congr,custom_main_text1
484,NA,dandilion,NA,NA,13,warmup/sunflower.png,dandelion,This is a,No,1,flowers,Sarah,NA,sunflower,NA,yes,Please label the pictures below.,NA,NA,28,NA,NA,NA,warmup/dandelion.jpg,flowers,some_college,NA,NA,English,male,NA,flowers,NA,1,1567791940921,1,This is a,1,These are both,sunflower,NA,NA,warmup2
484,NA,dandelion,NA,NA,13,warmup/sunflower.png,dandelion,This is a,No,1,flowers,Sarah,NA,sunflower,NA,yes,Please label the pictures below.,NA,NA,28,NA,NA,NA,warmup/dandelion.jpg,flowers,some_college,NA,NA,English,male,NA,flowers,NA,1,1567791940921,2,This is a,1,These are both,sunflower,NA,NA,warmup2
484,NA,tree,NA,NA,13,warmup/bonsai.jpg,redwood or sequoia (choose one),This is a,No,1,trees,Sarah,NA,bonsai,NA,yes,Please label the pictures below.,NA,NA,28,NA,NA,NA,warmup/sequoia.png,trees,some_college,NA,NA,English,male,NA,trees,NA,2,1567791940921,1,This is a,1,These are both,sappling,NA,NA,warmup2
484,NA,redwood,NA,NA,13,warmup/bonsai.jpg,redwood or sequoia (choose one),This is a,No,1,trees,Sarah,NA,bonsai,NA,yes,Please label the pictures below.,NA,NA,28,NA,NA,NA,warmup/sequoia.png,trees,some_college,NA,NA,English,male,NA,trees,NA,2,1567791940921,2,This is a,1,These are both,bonsai,NA,NA,warmup2
484,NA,swordfish,NA,NA,13,warmup/goldfish.png,swordfish,This is a,No,1,fish,Sarah,NA,goldfish,NA,yes,Please label the pictures below.,NA,NA,28,NA,NA,NA,warmup/swordfish.jpg,fish,some_college,NA,NA,English,male,NA,fish,NA,3,1567791940921,1,This is a,1,These are both,goldfish,NA,NA,warmup2
484,What do you think your friend meant?,NA,It is big relative to other,images/tree-parade-basic.png,13,NA,NA,NA,No,1,trees,Sarah,NA,NA,0,yes,"You and your friend see another member of the group <br /> (not pictured), and your friend says: <br/><b>That's a big one.</b>",prenominal,NA,28,trees,NA,1,NA,NA,some_college,big,NA,English,male,NA,NA,You and your friend see the following:,1,1567791940921,NA,NA,1,NA,NA,NA,basic,custom_main_text2
484,Please rephrase your friend's comment.,NA,It is small relative to other,images/fish-parade-goldfish.png,13,NA,NA,NA,No,1,fish,Sarah,NA,NA,1,yes,"You and your friend see another member of the group <br /> (not pictured), and your friend says: <br/><b>That's a small goldfish.</b>",prenominal,NA,28,goldfish,NA,0,NA,NA,some_college,small,NA,English,male,NA,NA,You and your friend see the following:,2,1567791940921,NA,NA,1,NA,NA,NA,congr,custom_main_text2
484,What do you think your friend meant?,NA,It is big relative to other,images/flower-parade-basic.png,13,NA,NA,NA,No,1,flowers,Sarah,NA,NA,0,yes,"You and your friend see another member of the group <br /> (not pictured), and your friend says: <br/><b>That's a big sunflower.</b>",prenominal,NA,28,sunflowers,NA,0,NA,NA,some_college,big,NA,English,male,NA,NA,You and your friend see the following:,3,1567791940921,NA,NA,1,NA,NA,NA,basic,custom_main_text2
481,<i>What do you think Speaker A meant? </i>,NA,The Empire State Building is tall relative to other,NA,13,NA,NA,NA,One of the pictures in the doberman group is actually a miniature pinscher. It was on the far right with the shorter cropped ears and the pointier face.,2,NA,patricia,1,NA,NA,NA,NA,NA,"<b> Speaker A: ""The Empire State Building is tall.""</b>",NA,buildings,NA,NA,NA,NA,some_college,NA,comp_class_warmup,English,female,NA,NA,In the main trials you will be asked to rephrase something a person said. The utterance will contain a word that is <i>relative</i> and your task is to figure out what it is relative to. <br /> <br /> For example: <br /><br />,1,1567791328289,1,NA,1,NA,NA,"buildings, scyscrapers, houses, constructions (choose one)",NA,comp_class_warmup
481,NA,Tree,NA,NA,13,warmup/bonsai.jpg,redwood or sequoia (choose one),This is a,One of the pictures in the doberman group is actually a miniature pinscher. It was on the far right with the shorter cropped ears and the pointier face.,2,trees,patricia,NA,bonsai,NA,NA,Please label the pictures below.,NA,NA,NA,NA,NA,NA,warmup/sequoia.png,plants,some_college,NA,NA,English,female,NA,trees,NA,1,1567791328289,1,This is a,1,These are both,bonsai,NA,NA,warmup1
481,NA,redwood,NA,NA,13,warmup/bonsai.jpg,redwood or sequoia (choose one),This is a,One of the pictures in the doberman group is actually a miniature pinscher. It was on the far right with the shorter cropped ears and the pointier face.,2,trees,patricia,NA,bonsai,NA,NA,Please label the pictures below.,NA,NA,NA,NA,NA,NA,warmup/sequoia.png,trees,some_college,NA,NA,English,female,NA,trees,NA,1,1567791328289,2,This is a,1,These are both,bonsai,NA,NA,warmup1
481,NA,weed,NA,NA,13,warmup/sunflower.png,dandelion,This is a,One of the pictures in the doberman group is actually a miniature pinscher. It was on the far right with the shorter cropped ears and the pointier face.,2,flowers,patricia,NA,sunflower,NA,NA,Please label the pictures below.,NA,NA,NA,NA,NA,NA,warmup/dandelion.jpg,flowers,some_college,NA,NA,English,female,NA,flowers,NA,2,1567791328289,1,This is a,1,These are both,sunflower,NA,NA,warmup1
481,NA,dandelion,NA,NA,13,warmup/sunflower.png,dandelion,This is a,One of the pictures in the doberman group is actually a miniature pinscher. It was on the far right with the shorter cropped ears and the pointier face.,2,flowers,patricia,NA,sunflower,NA,NA,Please label the pictures below.,NA,NA,NA,NA,NA,NA,warmup/dandelion.jpg,flowers,some_college,NA,NA,English,female,NA,flowers,NA,2,1567791328289,2,This is a,1,These are both,sunflower,NA,NA,warmup1
481,NA,pug,NA,NA,13,warmup/great-dane.jpg,pug,This is a,One of the pictures in the doberman group is actually a miniature pinscher. It was on the far right with the shorter cropped ears and the pointier face.,2,dogs,patricia,NA,great dane,NA,NA,Please label the pictures below.,NA,NA,NA,NA,NA,NA,warmup/pug.jpg,dogs,some_college,NA,NA,English,female,NA,dogs,NA,3,1567791328289,1,This is a,1,These are both,great dane,NA,NA,warmup1
481,What do you think your friend meant?,NA,It is big relative to other,images/tree-parade-basic.png,13,NA,NA,NA,One of the pictures in the doberman group is actually a miniature pinscher. It was on the far right with the shorter cropped ears and the pointier face.,2,trees,patricia,NA,NA,0,NA,"You and your friend see another member of the group <br /> (not pictured), and your friend says: <br/><b>That's a big redwood.</b>",prenominal,NA,NA,redwoods,NA,0,NA,NA,some_college,big,NA,English,female,NA,NA,You and your friend see the following:,1,1567791328289,NA,NA,1,NA,NA,NA,basic,custom_main_text1
481,What do you think your friend meant?,NA,It is small relative to other,images/dog-parade-basic2.png,13,NA,NA,NA,One of the pictures in the doberman group is actually a miniature pinscher. It was on the far right with the shorter cropped ears and the pointier face.,2,dogs2,patricia,NA,NA,0,NA,"You and your friend see another member of the group <br /> (not pictured), and your friend says: <br/><b>That's a small pug.</b>",prenominal,NA,NA,pugs,NA,0,NA,NA,some_college,small,NA,English,female,NA,NA,You and your friend see the following:,2,1567791328289,NA,NA,1,NA,NA,NA,basic,custom_main_text1
481,What do you think your friend meant?,NA,It is small relative to other,images/flower-parade-dandelion.png,13,NA,NA,NA,One of the pictures in the doberman group is actually a miniature pinscher. It was on the far right with the shorter cropped ears and the pointier face.,2,flowers,patricia,NA,NA,1,NA,"You and your friend see another member of the group <br /> (not pictured), and your friend says: <br/><b>That's a small dandelion.</b>",prenominal,NA,NA,dandelions,NA,0,NA,NA,some_college,small,NA,English,female,NA,NA,You and your friend see the following:,3,1567791328289,NA,NA,1,NA,NA,NA,congr,custom_main_text1
481,NA,hummingbird,NA,NA,13,warmup/eagle.jpg,hummingbird,This is a,One of the pictures in the doberman group is actually a miniature pinscher. It was on the far right with the shorter cropped ears and the pointier face.,2,birds,patricia,NA,eagle,NA,NA,Please label the pictures below.,NA,NA,NA,NA,NA,NA,warmup/colibri.jpg,birds,some_college,NA,NA,English,female,NA,birds,NA,1,1567791328289,1,This is an,1,These are both,eagle,NA,NA,warmup2
481,NA,chihuahua,NA,NA,13,warmup/doberman.png,chihuahua,This is a,One of the pictures in the doberman group is actually a miniature pinscher. It was on the far right with the shorter cropped ears and the pointier face.,2,dogs,patricia,NA,doberman,NA,NA,Please label the pictures below.,NA,NA,NA,NA,NA,NA,warmup/chihuahua.jpg,dogs,some_college,NA,NA,English,female,NA,dogs,NA,2,1567791328289,1,This is a,1,These are both,doberman,NA,NA,warmup2
481,NA,marlin,NA,NA,13,warmup/goldfish.png,swordfish,This is a,One of the pictures in the doberman group is actually a miniature pinscher. It was on the far right with the shorter cropped ears and the pointier face.,2,fish,patricia,NA,goldfish,NA,NA,Please label the pictures below.,NA,NA,NA,NA,NA,NA,warmup/swordfish.jpg,fish,some_college,NA,NA,English,female,NA,fish,NA,3,1567791328289,1,This is a,1,These are both,goldfish,NA,NA,warmup2
481,NA,swordfish,NA,NA,13,warmup/goldfish.png,swordfish,This is a,One of the pictures in the doberman group is actually a miniature pinscher. It was on the far right with the shorter cropped ears and the pointier face.,2,fish,patricia,NA,goldfish,NA,NA,Please label the pictures below.,NA,NA,NA,NA,NA,NA,warmup/swordfish.jpg,fish,some_college,NA,NA,English,female,NA,fish,NA,3,1567791328289,2,This is a,1,These are both,goldfish,NA,NA,warmup2
481,What do you think your friend meant?,NA,It is big relative to other,images/dog-parade-doberman.png,13,NA,NA,NA,One of the pictures in the doberman group is actually a miniature pinscher. It was on the far right with the shorter cropped ears and the pointier face.,2,dogs1,patricia,NA,NA,1,NA,"You and your friend see another member of the group <br /> (not pictured), and your friend says: <br/><b>That's a big one.</b>",prenominal,NA,NA,dobermans,NA,1,NA,NA,some_college,big,NA,English,female,NA,NA,You and your friend see the following:,1,1567791328289,NA,NA,1,NA,NA,NA,congr,custom_main_text2
481,Please rephrase your friend's comment.,NA,It is small relative to other,images/fish-parade-basic.png,13,NA,NA,NA,One of the pictures in the doberman group is actually a miniature pinscher. It was on the far right with the shorter cropped ears and the pointier face.,2,fish,patricia,NA,NA,0,NA,"You and your friend see another member of the group <br /> (not pictured), and your friend says: <br/><b>That's a small one.</b>",prenominal,NA,NA,fish,NA,1,NA,NA,some_college,small,NA,English,female,NA,NA,You and your friend see the following:,2,1567791328289,NA,NA,1,NA,NA,NA,basic,custom_main_text2
481,What do you think your friend meant?,NA,It is big relative to other,images/bird-parade-eagle.png,13,NA,NA,NA,One of the pictures in the doberman group is actually a miniature pinscher. It was on the far right with the shorter cropped ears and the pointier face.,2,birds,patricia,NA,NA,1,NA,"You and your friend see another member of the group <br /> (not pictured), and your friend says: <br/><b>That's a big one.</b>",prenominal,NA,NA,eagles,NA,1,NA,NA,some_college,big,NA,English,female,NA,NA,You and your friend see the following:,3,1567791328289,NA,NA,1,NA,NA,NA,congr,custom_main_text2
480,<i>What do you think Speaker A meant? </i>,NA,The Empire State Building is tall relative to other,NA,13,NA,NA,NA,NA,1,NA,jennifer,1,NA,NA,yes,NA,NA,"<b> Speaker A: ""The Empire State Building is tall.""</b>",47,buildings,NA,NA,NA,NA,graduated_college,NA,comp_class_warmup,English,male,NA,NA,In the main trials you will be asked to rephrase something a person said. The utterance will contain a word that is <i>relative</i> and your task is to figure out what it is relative to. <br /> <br /> For example: <br /><br />,1,1567791318384,1,NA,2,NA,NA,"buildings, scyscrapers, houses, constructions (choose one)",NA,comp_class_warmup
480,NA,pug,NA,NA,13,warmup/great-dane.jpg,pug,This is a,NA,1,dogs,jennifer,NA,great dane,NA,yes,Please label the pictures below.,NA,NA,47,NA,NA,NA,warmup/pug.jpg,dogs,graduated_college,NA,NA,English,male,NA,dogs,NA,1,1567791318384,1,This is a,2,These are both,hound,NA,NA,warmup1
480,NA,pug,NA,NA,13,warmup/great-dane.jpg,pug,This is a,NA,1,dogs,jennifer,NA,great dane,NA,yes,Please label the pictures below.,NA,NA,47,NA,NA,NA,warmup/pug.jpg,dogs,graduated_college,NA,NA,English,male,NA,dogs,NA,1,1567791318384,2,This is a,2,These are both,great dane,NA,NA,warmup1
480,NA,dandelion,NA,NA,13,warmup/sunflower.png,dandelion,This is a,NA,1,flowers,jennifer,NA,sunflower,NA,yes,Please label the pictures below.,NA,NA,47,NA,NA,NA,warmup/dandelion.jpg,plants,graduated_college,NA,NA,English,male,NA,flowers,NA,2,1567791318384,1,This is a,2,These are both,sunflower,NA,NA,warmup1
480,NA,dandelion,NA,NA,13,warmup/sunflower.png,dandelion,This is a,NA,1,flowers,jennifer,NA,sunflower,NA,yes,Please label the pictures below.,NA,NA,47,NA,NA,NA,warmup/dandelion.jpg,flowers,graduated_college,NA,NA,English,male,NA,flowers,NA,2,1567791318384,2,This is a,2,These are both,sunflower,NA,NA,warmup1
480,NA,hummingbird,NA,NA,13,warmup/eagle.jpg,hummingbird,This is a,NA,1,birds,jennifer,NA,eagle,NA,yes,Please label the pictures below.,NA,NA,47,NA,NA,NA,warmup/colibri.jpg,birds,graduated_college,NA,NA,English,male,NA,birds,NA,3,1567791318384,1,This is an,2,These are both,eagle,NA,NA,warmup1
480,What do you think your friend meant?,NA,It is big relative to other,images/bird-parade-basic.png,13,NA,NA,NA,NA,1,birds,jennifer,NA,NA,0,yes,"You and your friend see another member of the group <br /> (not pictured), and your friend says: <br/><b>That's a big eagle.</b>",prenominal,NA,47,birds,NA,0,NA,NA,graduated_college,big,NA,English,male,NA,NA,You and your friend see the following:,1,1567791318384,NA,NA,2,NA,NA,NA,basic,custom_main_text1
480,What do you think your friend meant?,NA,It is big relative to other,images/flower-parade-dandelion.png,13,NA,NA,NA,NA,1,flowers,jennifer,NA,NA,2,yes,"You and your friend see another member of the group <br /> (not pictured), and your friend says: <br/><b>That's a big dandelion.</b>",prenominal,NA,47,dandelions,NA,0,NA,NA,graduated_college,big,NA,English,male,NA,NA,You and your friend see the following:,2,1567791318384,NA,NA,2,NA,NA,NA,incongr,custom_main_text1
480,What do you think your friend meant?,NA,It is big relative to other,images/dog-parade-great-dane.png,13,NA,NA,NA,NA,1,dogs2,jennifer,NA,NA,1,yes,"You and your friend see another member of the group <br /> (not pictured), and your friend says: <br/><b>That's a big great dane.</b>",prenominal,NA,47,great danes,NA,0,NA,NA,graduated_college,big,NA,English,male,NA,NA,You and your friend see the following:,3,1567791318384,NA,NA,2,NA,NA,NA,congr,custom_main_text1
480,NA,redwood,NA,NA,13,warmup/bonsai.jpg,redwood or sequoia (choose one),This is a,NA,1,trees,jennifer,NA,bonsai,NA,yes,Please label the pictures below.,NA,NA,47,NA,NA,NA,warmup/sequoia.png,trees,graduated_college,NA,NA,English,male,NA,trees,NA,1,1567791318384,1,This is a,2,These are both,bonsai,NA,NA,warmup2
480,NA,chihuahua,NA,NA,13,warmup/doberman.png,chihuahua,This is a,NA,1,dogs,jennifer,NA,doberman,NA,yes,Please label the pictures below.,NA,NA,47,NA,NA,NA,warmup/chihuahua.jpg,dogs,graduated_college,NA,NA,English,male,NA,dogs,NA,2,1567791318384,1,This is a,2,These are both,doberman,NA,NA,warmup2
480,NA,swordfish,NA,NA,13,warmup/goldfish.png,swordfish,This is a,NA,1,fish,jennifer,NA,goldfish,NA,yes,Please label the pictures below.,NA,NA,47,NA,NA,NA,warmup/swordfish.jpg,fish,graduated_college,NA,NA,English,male,NA,fish,NA,3,1567791318384,1,This is a,2,These are both,goldfish,NA,NA,warmup2
480,Please rephrase your friend's comment.,NA,It is big relative to other,images/fish-parade-goldfish.png,13,NA,NA,NA,NA,1,fish,jennifer,NA,NA,2,yes,"You and your friend see another member of the group <br /> (not pictured), and your friend says: <br/><b>That's a big one.</b>",prenominal,NA,47,things,NA,1,NA,NA,graduated_college,big,NA,English,male,NA,NA,You and your friend see the following:,1,1567791318384,NA,NA,2,NA,NA,NA,incongr,custom_main_text2
480,What do you think your friend meant?,NA,It is small relative to other,images/tree-parade-basic.png,13,NA,NA,NA,NA,1,trees,jennifer,NA,NA,0,yes,"You and your friend see another member of the group <br /> (not pictured), and your friend says: <br/><b>That's a small one.</b>",prenominal,NA,47,trees,NA,1,NA,NA,graduated_college,small,NA,English,male,NA,NA,You and your friend see the following:,2,1567791318384,NA,NA,2,NA,NA,NA,basic,custom_main_text2
480,What do you think your friend meant?,NA,It is big relative to other,images/dog-parade-basic.png,13,NA,NA,NA,NA,1,dogs1,jennifer,NA,NA,0,yes,"You and your friend see another member of the group <br /> (not pictured), and your friend says: <br/><b>That's a big one.</b>",prenominal,NA,47,dogs,NA,1,NA,NA,graduated_college,big,NA,English,male,NA,NA,You and your friend see the following:,3,1567791318384,NA,NA,2,NA,NA,NA,basic,custom_main_text2
477,<i>What do you think Speaker A meant? </i>,NA,The Empire State Building is tall relative to other,NA,13,NA,NA,NA,no,2,NA,barbara,1,NA,NA,NA,NA,NA,"<b> Speaker A: ""The Empire State Building is tall.""</b>",29,buildings.,NA,NA,NA,NA,graduated_college,NA,comp_class_warmup,englosh,male,NA,NA,In the main trials you will be asked to rephrase something a person said. The utterance will contain a word that is <i>relative</i> and your task is to figure out what it is relative to. <br /> <br /> For example: <br /><br />,1,1567791330447,1,NA,1.5,NA,NA,"buildings, scyscrapers, houses, constructions (choose one)",NA,comp_class_warmup
477,<i>What do you think Speaker A meant? </i>,NA,The Empire State Building is tall relative to other,NA,13,NA,NA,NA,no,2,NA,barbara,1,NA,NA,NA,NA,NA,"<b> Speaker A: ""The Empire State Building is tall.""</b>",29,buildings,NA,NA,NA,NA,graduated_college,NA,comp_class_warmup,englosh,male,NA,NA,In the main trials you will be asked to rephrase something a person said. The utterance will contain a word that is <i>relative</i> and your task is to figure out what it is relative to. <br /> <br /> For example: <br /><br />,1,1567791330447,2,NA,1.5,NA,NA,"buildings, scyscrapers, houses, constructions (choose one)",NA,comp_class_warmup
477,NA,hummingbird,NA,NA,13,warmup/eagle.jpg,hummingbird,This is a,no,2,birds,barbara,NA,eagle,NA,NA,Please label the pictures below.,NA,NA,29,NA,NA,NA,warmup/colibri.jpg,birds,graduated_college,NA,NA,englosh,male,NA,birds,NA,1,1567791330447,1,This is an,1.5,These are both,eagle,NA,NA,warmup1
477,NA,dandelion,NA,NA,13,warmup/sunflower.png,dandelion,This is a,no,2,flowers,barbara,NA,sunflower,NA,NA,Please label the pictures below.,NA,NA,29,NA,NA,NA,warmup/dandelion.jpg,flowers,graduated_college,NA,NA,englosh,male,NA,flowers,NA,2,1567791330447,1,This is a,1.5,These are both,sunflower,NA,NA,warmup1
477,NA,pug,NA,NA,13,warmup/great-dane.jpg,pug,This is a,no,2,dogs,barbara,NA,great dane,NA,NA,Please label the pictures below.,NA,NA,29,NA,NA,NA,warmup/pug.jpg,dogs,graduated_college,NA,NA,englosh,male,NA,dogs,NA,3,1567791330447,1,This is a,1.5,These are both,great dane,NA,NA,warmup1
477,What do you think your friend meant?,NA,It is big relative to other,images/bird-parade-basic.png,13,NA,NA,NA,no,2,birds,barbara,NA,NA,0,NA,"You and your friend see another member of the group <br /> (not pictured), and your friend says: <br/><b>That's a big one.</b>",prenominal,NA,29,birds,NA,1,NA,NA,graduated_college,big,NA,englosh,male,NA,NA,You and your friend see the following:,1,1567791330447,NA,NA,1.5,NA,NA,NA,basic,custom_main_text1
477,What do you think your friend meant?,NA,It is small relative to other,images/flower-parade-dandelion.png,13,NA,NA,NA,no,2,flowers,barbara,NA,NA,1,NA,"You and your friend see another member of the group <br /> (not pictured), and your friend says: <br/><b>That's a small one.</b>",prenominal,NA,29,weeds,NA,1,NA,NA,graduated_college,small,NA,englosh,male,NA,NA,You and your friend see the following:,2,1567791330447,NA,NA,1.5,NA,NA,NA,congr,custom_main_text1
477,What do you think your friend meant?,NA,It is big relative to other,images/dog-parade-pug.png,13,NA,NA,NA,no,2,dogs2,barbara,NA,NA,2,NA,"You and your friend see another member of the group <br /> (not pictured), and your friend says: <br/><b>That's a big pug.</b>",prenominal,NA,29,pugs,NA,0,NA,NA,graduated_college,big,NA,englosh,male,NA,NA,You and your friend see the following:,3,1567791330447,NA,NA,1.5,NA,NA,NA,incongr,custom_main_text1
477,NA,chihuahua,NA,NA,13,warmup/doberman.png,chihuahua,This is a,no,2,dogs,barbara,NA,doberman,NA,NA,Please label the pictures below.,NA,NA,29,NA,NA,NA,warmup/chihuahua.jpg,dogs,graduated_college,NA,NA,englosh,male,NA,dogs,NA,1,1567791330447,1,This is a,1.5,These are both,doberman,NA,NA,warmup2
477,NA,marlin,NA,NA,13,warmup/goldfish.png,swordfish,This is a,no,2,fish,barbara,NA,goldfish,NA,NA,Please label the pictures below.,NA,NA,29,NA,NA,NA,warmup/swordfish.jpg,fish,graduated_college,NA,NA,englosh,male,NA,fish,NA,2,1567791330447,1,This is a,1.5,These are both,goldfish,NA,NA,warmup2
477,NA,swordfish,NA,NA,13,warmup/goldfish.png,swordfish,This is a,no,2,fish,barbara,NA,goldfish,NA,NA,Please label the pictures below.,NA,NA,29,NA,NA,NA,warmup/swordfish.jpg,fish,graduated_college,NA,NA,englosh,male,NA,fish,NA,2,1567791330447,2,This is a,1.5,These are both,goldfish,NA,NA,warmup2
477,NA,redwood,NA,NA,13,warmup/bonsai.jpg,redwood or sequoia (choose one),This is a,no,2,trees,barbara,NA,bonsai,NA,NA,Please label the pictures below.,NA,NA,29,NA,NA,NA,warmup/sequoia.png,trees,graduated_college,NA,NA,englosh,male,NA,trees,NA,3,1567791330447,1,This is a,1.5,These are both,bonsai,NA,NA,warmup2
477,Please rephrase your friend's comment.,NA,It is small relative to other,images/fish-parade-basic.png,13,NA,NA,NA,no,2,fish,barbara,NA,NA,0,NA,"You and your friend see another member of the group <br /> (not pictured), and your friend says: <br/><b>That's a small one.</b>",prenominal,NA,29,fish,NA,1,NA,NA,graduated_college,small,NA,englosh,male,NA,NA,You and your friend see the following:,1,1567791330447,NA,NA,1.5,NA,NA,NA,basic,custom_main_text2
477,What do you think your friend meant?,NA,It is big relative to other,images/dog-parade-doberman.png,13,NA,NA,NA,no,2,dogs1,barbara,NA,NA,1,NA,"You and your friend see another member of the group <br /> (not pictured), and your friend says: <br/><b>That's a big doberman.</b>",prenominal,NA,29,doberman,NA,0,NA,NA,graduated_college,big,NA,englosh,male,NA,NA,You and your friend see the following:,2,1567791330447,NA,NA,1.5,NA,NA,NA,congr,custom_main_text2
477,What do you think your friend meant?,NA,It is big relative to other,images/tree-parade-basic.png,13,NA,NA,NA,no,2,trees,barbara,NA,NA,0,NA,"You and your friend see another member of the group <br /> (not pictured), and your friend says: <br/><b>That's a big redwood.</b>",prenominal,NA,29,trees,NA,0,NA,NA,graduated_college,big,NA,englosh,male,NA,NA,You and your friend see the following:,3,1567791330447,NA,NA,1.5,NA,NA,NA,basic,custom_main_text2
475,<i>What do you think Speaker A meant? </i>,NA,The Empire State Building is tall relative to other,NA,13,NA,NA,NA,no,1,NA,elizabeth,1,NA,NA,yes,NA,NA,"<b> Speaker A: ""The Empire State Building is tall.""</b>",38,buildings,NA,NA,NA,NA,graduated_college,NA,comp_class_warmup,english,female,NA,NA,In the main trials you will be asked to rephrase something a person said. The utterance will contain a word that is <i>relative</i> and your task is to figure out what it is relative to. <br /> <br /> For example: <br /><br />,1,1567791037518,1,NA,1,NA,NA,"buildings, scyscrapers, houses, constructions (choose one)",NA,comp_class_warmup
475,NA,hummingbird,NA,NA,13,warmup/eagle.jpg,hummingbird,This is a,no,1,birds,elizabeth,NA,eagle,NA,yes,Please label the pictures below.,NA,NA,38,NA,NA,NA,warmup/colibri.jpg,birds,graduated_college,NA,NA,english,female,NA,birds,NA,1,1567791037518,1,This is an,1,These are both,eagle,NA,NA,warmup1
475,NA,pug,NA,NA,13,warmup/great-dane.jpg,pug,This is a,no,1,dogs,elizabeth,NA,great dane,NA,yes,Please label the pictures below.,NA,NA,38,NA,NA,NA,warmup/pug.jpg,dogs,graduated_college,NA,NA,english,female,NA,dogs,NA,2,1567791037518,1,This is a,1,These are both,greyhound,NA,NA,warmup1
475,NA,pug,NA,NA,13,warmup/great-dane.jpg,pug,This is a,no,1,dogs,elizabeth,NA,great dane,NA,yes,Please label the pictures below.,NA,NA,38,NA,NA,NA,warmup/pug.jpg,dogs,graduated_college,NA,NA,english,female,NA,dogs,NA,2,1567791037518,2,This is a,1,These are both,great dane,NA,NA,warmup1
475,NA,elm,NA,NA,13,warmup/bonsai.jpg,redwood or sequoia (choose one),This is a,no,1,trees,elizabeth,NA,bonsai,NA,yes,Please label the pictures below.,NA,NA,38,NA,NA,NA,warmup/sequoia.png,trees,graduated_college,NA,NA,english,female,NA,trees,NA,3,1567791037518,1,This is a,1,These are both,bonsai,NA,NA,warmup1
475,NA,redwood,NA,NA,13,warmup/bonsai.jpg,redwood or sequoia (choose one),This is a,no,1,trees,elizabeth,NA,bonsai,NA,yes,Please label the pictures below.,NA,NA,38,NA,NA,NA,warmup/sequoia.png,trees,graduated_college,NA,NA,english,female,NA,trees,NA,3,1567791037518,2,This is a,1,These are both,bonsai,NA,NA,warmup1
475,What do you think your friend meant?,NA,It is big relative to other,images/bird-parade-hummingbird.png,13,NA,NA,NA,no,1,birds,elizabeth,NA,NA,2,yes,"You and your friend see another member of the group <br /> (not pictured), and your friend says: <br/><b>That's a big hummingbird.</b>",prenominal,NA,38,hummingbirds,NA,0,NA,NA,graduated_college,big,NA,english,female,NA,NA,You and your friend see the following:,1,1567791037518,NA,NA,1,NA,NA,NA,incongr,custom_main_text1
475,What do you think your friend meant?,NA,It is big relative to other,images/dog-parade-great-dane.png,13,NA,NA,NA,no,1,dogs2,elizabeth,NA,NA,1,yes,"You and your friend see another member of the group <br /> (not pictured), and your friend says: <br/><b>That's a big one.</b>",prenominal,NA,38,dogs,NA,1,NA,NA,graduated_college,big,NA,english,female,NA,NA,You and your friend see the following:,2,1567791037518,NA,NA,1,NA,NA,NA,congr,custom_main_text1
475,What do you think your friend meant?,NA,It is small relative to other,images/tree-parade-basic.png,13,NA,NA,NA,no,1,trees,elizabeth,NA,NA,0,yes,"You and your friend see another member of the group <br /> (not pictured), and your friend says: <br/><b>That's a small bonsai.</b>",prenominal,NA,38,bonsais,NA,0,NA,NA,graduated_college,small,NA,english,female,NA,NA,You and your friend see the following:,3,1567791037518,NA,NA,1,NA,NA,NA,basic,custom_main_text1
475,NA,dolphin,NA,NA,13,warmup/goldfish.png,swordfish,This is a,no,1,fish,elizabeth,NA,goldfish,NA,yes,Please label the pictures below.,NA,NA,38,NA,NA,NA,warmup/swordfish.jpg,fish,graduated_college,NA,NA,english,female,NA,fish,NA,1,1567791037518,1,This is a,1,These are both,goldfish,NA,NA,warmup2
475,NA,swordfish,NA,NA,13,warmup/goldfish.png,swordfish,This is a,no,1,fish,elizabeth,NA,goldfish,NA,yes,Please label the pictures below.,NA,NA,38,NA,NA,NA,warmup/swordfish.jpg,fish,graduated_college,NA,NA,english,female,NA,fish,NA,1,1567791037518,2,This is a,1,These are both,goldfish,NA,NA,warmup2
475,NA,dandelion,NA,NA,13,warmup/sunflower.png,dandelion,This is a,no,1,flowers,elizabeth,NA,sunflower,NA,yes,Please label the pictures below.,NA,NA,38,NA,NA,NA,warmup/dandelion.jpg,flowers,graduated_college,NA,NA,english,female,NA,flowers,NA,2,1567791037518,1,This is a,1,These are both,sunflower,NA,NA,warmup2
475,NA,chiahua,NA,NA,13,warmup/doberman.png,chihuahua,This is a,no,1,dogs,elizabeth,NA,doberman,NA,yes,Please label the pictures below.,NA,NA,38,NA,NA,NA,warmup/chihuahua.jpg,dogs,graduated_college,NA,NA,english,female,NA,dogs,NA,3,1567791037518,1,This is a,1,These are both,dalmation,NA,NA,warmup2
475,NA,chihuahua,NA,NA,13,warmup/doberman.png,chihuahua,This is a,no,1,dogs,elizabeth,NA,doberman,NA,yes,Please label the pictures below.,NA,NA,38,NA,NA,NA,warmup/chihuahua.jpg,dogs,graduated_college,NA,NA,english,female,NA,dogs,NA,3,1567791037518,2,This is a,1,These are both,doberman,NA,NA,warmup2
475,Please rephrase your friend's comment.,NA,It is big relative to other,images/fish-parade-swordfish.png,13,NA,NA,NA,no,1,fish,elizabeth,NA,NA,1,yes,"You and your friend see another member of the group <br /> (not pictured), and your friend says: <br/><b>That's a big one.</b>",prenominal,NA,38,fish,NA,1,NA,NA,graduated_college,big,NA,english,female,NA,NA,You and your friend see the following:,1,1567791037518,NA,NA,1,NA,NA,NA,congr,custom_main_text2
475,What do you think your friend meant?,NA,It is small relative to other,images/dog-parade-basic.png,13,NA,NA,NA,no,1,dogs1,elizabeth,NA,NA,0,yes,"You and your friend see another member of the group <br /> (not pictured), and your friend says: <br/><b>That's a small one.</b>",prenominal,NA,38,dogs,NA,1,NA,NA,graduated_college,small,NA,english,female,NA,NA,You and your friend see the following:,2,1567791037518,NA,NA,1,NA,NA,NA,basic,custom_main_text2
475,What do you think your friend meant?,NA,It is big relative to other,images/flower-parade-basic.png,13,NA,NA,NA,no,1,flowers,elizabeth,NA,NA,0,yes,"You and your friend see another member of the group <br /> (not pictured), and your friend says: <br/><b>That's a big sunflower.</b>",prenominal,NA,38,sunflowers,NA,0,NA,NA,graduated_college,big,NA,english,female,NA,NA,You and your friend see the following:,3,1567791037518,NA,NA,1,NA,NA,NA,basic,custom_main_text2
471,<i>What do you think Speaker A meant? </i>,NA,The Empire State Building is tall relative to other,NA,13,NA,NA,NA,NA,1,NA,jessica,1,NA,NA,yes,NA,NA,"<b> Speaker A: ""The Empire State Building is tall.""</b>",41,buildings,NA,NA,NA,NA,graduated_college,NA,comp_class_warmup,English,male,NA,NA,In the main trials you will be asked to rephrase something a person said. The utterance will contain a word that is <i>relative</i> and your task is to figure out what it is relative to. <br /> <br /> For example: <br /><br />,1,1567790720500,1,NA,2,NA,NA,"buildings, scyscrapers, houses, constructions (choose one)",NA,comp_class_warmup
471,NA,swordfish,NA,NA,13,warmup/goldfish.png,swordfish,This is a,NA,1,fish,jessica,NA,goldfish,NA,yes,Please label the pictures below.,NA,NA,41,NA,NA,NA,warmup/swordfish.jpg,fish,graduated_college,NA,NA,English,male,NA,fish,NA,1,1567790720500,1,This is a,2,These are both,goldfish,NA,NA,warmup1
471,NA,tree,NA,NA,13,warmup/bonsai.jpg,redwood or sequoia (choose one),This is a,NA,1,trees,jessica,NA,bonsai,NA,yes,Please label the pictures below.,NA,NA,41,NA,NA,NA,warmup/sequoia.png,tree,graduated_college,NA,NA,English,male,NA,trees,NA,2,1567790720500,1,This is a,2,These are both,tree,NA,NA,warmup1
471,NA,tree,NA,NA,13,warmup/bonsai.jpg,redwood or sequoia (choose one),This is a,NA,1,trees,jessica,NA,bonsai,NA,yes,Please label the pictures below.,NA,NA,41,NA,NA,NA,warmup/sequoia.png,trees,graduated_college,NA,NA,English,male,NA,trees,NA,2,1567790720500,2,This is a,2,These are both,tree,NA,NA,warmup1
471,NA,redwood,NA,NA,13,warmup/bonsai.jpg,redwood or sequoia (choose one),This is a,NA,1,trees,jessica,NA,bonsai,NA,yes,Please label the pictures below.,NA,NA,41,NA,NA,NA,warmup/sequoia.png,trees,graduated_college,NA,NA,English,male,NA,trees,NA,2,1567790720500,3,This is a,2,These are both,bonsai,NA,NA,warmup1
471,NA,dandilion,NA,NA,13,warmup/sunflower.png,dandelion,This is a,NA,1,flowers,jessica,NA,sunflower,NA,yes,Please label the pictures below.,NA,NA,41,NA,NA,NA,warmup/dandelion.jpg,flowers,graduated_college,NA,NA,English,male,NA,flowers,NA,3,1567790720500,1,This is a,2,These are both,sunflower,NA,NA,warmup1
471,NA,dandelion,NA,NA,13,warmup/sunflower.png,dandelion,This is a,NA,1,flowers,jessica,NA,sunflower,NA,yes,Please label the pictures below.,NA,NA,41,NA,NA,NA,warmup/dandelion.jpg,flowers,graduated_college,NA,NA,English,male,NA,flowers,NA,3,1567790720500,2,This is a,2,These are both,sunflower,NA,NA,warmup1
471,What do you think your friend meant?,NA,It is small relative to other,images/tree-parade-basic.png,13,NA,NA,NA,NA,1,trees,jessica,NA,NA,0,yes,"You and your friend see another member of the group <br /> (not pictured), and your friend says: <br/><b>That's a small bonsai.</b>",prenominal,NA,41,bonsai,NA,0,NA,NA,graduated_college,small,NA,English,male,NA,NA,You and your friend see the following:,1,1567790720500,NA,NA,2,NA,NA,NA,basic,custom_main_text1
471,Please rephrase your friend's comment.,NA,It is small relative to other,images/fish-parade-goldfish.png,13,NA,NA,NA,NA,1,fish,jessica,NA,NA,1,yes,"You and your friend see another member of the group <br /> (not pictured), and your friend says: <br/><b>That's a small one.</b>",prenominal,NA,41,goldfish,NA,1,NA,NA,graduated_college,small,NA,English,male,NA,NA,You and your friend see the following:,2,1567790720500,NA,NA,2,NA,NA,NA,congr,custom_main_text1
471,What do you think your friend meant?,NA,It is big relative to other,images/flower-parade-basic.png,13,NA,NA,NA,NA,1,flowers,jessica,NA,NA,0,yes,"You and your friend see another member of the group <br /> (not pictured), and your friend says: <br/><b>That's a big sunflower.</b>",prenominal,NA,41,sunflowers,NA,0,NA,NA,graduated_college,big,NA,English,male,NA,NA,You and your friend see the following:,3,1567790720500,NA,NA,2,NA,NA,NA,basic,custom_main_text1
471,NA,chawawa,NA,NA,13,warmup/doberman.png,chihuahua,This is a,NA,1,dogs,jessica,NA,doberman,NA,yes,Please label the pictures below.,NA,NA,41,NA,NA,NA,warmup/chihuahua.jpg,dogs,graduated_college,NA,NA,English,male,NA,dogs,NA,1,1567790720500,1,This is a,2,These are both,rotwhiler,NA,NA,warmup2
471,NA,chihuahua,NA,NA,13,warmup/doberman.png,chihuahua,This is a,NA,1,dogs,jessica,NA,doberman,NA,yes,Please label the pictures below.,NA,NA,41,NA,NA,NA,warmup/chihuahua.jpg,dogs,graduated_college,NA,NA,English,male,NA,dogs,NA,1,1567790720500,2,This is a,2,These are both,doberman,NA,NA,warmup2
471,NA,hummingbird,NA,NA,13,warmup/eagle.jpg,hummingbird,This is a,NA,1,birds,jessica,NA,eagle,NA,yes,Please label the pictures below.,NA,NA,41,NA,NA,NA,warmup/colibri.jpg,birds,graduated_college,NA,NA,English,male,NA,birds,NA,2,1567790720500,1,This is an,2,These are both,eagle,NA,NA,warmup2
471,NA,pug,NA,NA,13,warmup/great-dane.jpg,pug,This is a,NA,1,dogs,jessica,NA,great dane,NA,yes,Please label the pictures below.,NA,NA,41,NA,NA,NA,warmup/pug.jpg,dogs,graduated_college,NA,NA,English,male,NA,dogs,NA,3,1567790720500,1,This is a,2,These are both,dog,NA,NA,warmup2
471,NA,pug,NA,NA,13,warmup/great-dane.jpg,pug,This is a,NA,1,dogs,jessica,NA,great dane,NA,yes,Please label the pictures below.,NA,NA,41,NA,NA,NA,warmup/pug.jpg,dogs,graduated_college,NA,NA,English,male,NA,dogs,NA,3,1567790720500,2,This is a,2,These are both,great dane,NA,NA,warmup2
471,What do you think your friend meant?,NA,It is small relative to other,images/dog-parade-doberman.png,13,NA,NA,NA,NA,1,dogs1,jessica,NA,NA,2,yes,"You and your friend see another member of the group <br /> (not pictured), and your friend says: <br/><b>That's a small one.</b>",prenominal,NA,41,dobermans,NA,1,NA,NA,graduated_college,small,NA,English,male,NA,NA,You and your friend see the following:,1,1567790720500,NA,NA,2,NA,NA,NA,incongr,custom_main_text2
471,What do you think your friend meant?,NA,It is big relative to other,images/bird-parade-basic.png,13,NA,NA,NA,NA,1,birds,jessica,NA,NA,0,yes,"You and your friend see another member of the group <br /> (not pictured), and your friend says: <br/><b>That's a big eagle.</b>",prenominal,NA,41,eagles,NA,0,NA,NA,graduated_college,big,NA,English,male,NA,NA,You and your friend see the following:,2,1567790720500,NA,NA,2,NA,NA,NA,basic,custom_main_text2
471,What do you think your friend meant?,NA,It is small relative to other,images/dog-parade-pug.png,13,NA,NA,NA,NA,1,dogs2,jessica,NA,NA,1,yes,"You and your friend see another member of the group <br /> (not pictured), and your friend says: <br/><b>That's a small one.</b>",prenominal,NA,41,pugs,NA,1,NA,NA,graduated_college,small,NA,English,male,NA,NA,You and your friend see the following:,3,1567790720500,NA,NA,2,NA,NA,NA,congr,custom_main_text2
470,<i>What do you think Speaker A meant? </i>,NA,The Empire State Building is tall relative to other,NA,13,NA,NA,NA,No,2,NA,susan,1,NA,NA,yes,NA,NA,"<b> Speaker A: ""The Empire State Building is tall.""</b>",33,buildings,NA,NA,NA,NA,graduated_high_school,NA,comp_class_warmup,English,female,NA,NA,In the main trials you will be asked to rephrase something a person said. The utterance will contain a word that is <i>relative</i> and your task is to figure out what it is relative to. <br /> <br /> For example: <br /><br />,1,1567789810876,1,NA,1,NA,NA,"buildings, scyscrapers, houses, constructions (choose one)",NA,comp_class_warmup
470,NA,Hummingbird,NA,NA,13,warmup/eagle.jpg,hummingbird,This is a,No,2,birds,susan,NA,eagle,NA,yes,Please label the pictures below.,NA,NA,33,NA,NA,NA,warmup/colibri.jpg,Birds,graduated_high_school,NA,NA,English,female,NA,birds,NA,1,1567789810876,1,This is an,1,These are both,Eagle,NA,NA,warmup1
470,NA,Chihuahua,NA,NA,13,warmup/doberman.png,chihuahua,This is a,No,2,dogs,susan,NA,doberman,NA,yes,Please label the pictures below.,NA,NA,33,NA,NA,NA,warmup/chihuahua.jpg,Dogs,graduated_high_school,NA,NA,English,female,NA,dogs,NA,2,1567789810876,1,This is a,1,These are both,Doberman,NA,NA,warmup1
470,NA,Pug,NA,NA,13,warmup/great-dane.jpg,pug,This is a,No,2,dogs,susan,NA,great dane,NA,yes,Please label the pictures below.,NA,NA,33,NA,NA,NA,warmup/pug.jpg,Dogs,graduated_high_school,NA,NA,English,female,NA,dogs,NA,3,1567789810876,1,This is a,1,These are both,Labrador,NA,NA,warmup1
470,NA,Pug,NA,NA,13,warmup/great-dane.jpg,pug,This is a,No,2,dogs,susan,NA,great dane,NA,yes,Please label the pictures below.,NA,NA,33,NA,NA,NA,warmup/pug.jpg,Dogs,graduated_high_school,NA,NA,English,female,NA,dogs,NA,3,1567789810876,2,This is a,1,These are both,Great Dane,NA,NA,warmup1
470,What do you think your friend meant?,NA,It is small relative to other,images/dog-parade-basic.png,13,NA,NA,NA,No,2,dogs1,susan,NA,NA,0,yes,"You and your friend see another member of the group <br /> (not pictured), and your friend says: <br/><b>That's a small chihuahua.</b>",prenominal,NA,33,chihuahua,NA,0,NA,NA,graduated_high_school,small,NA,English,female,NA,NA,You and your friend see the following:,1,1567789810876,NA,NA,1,NA,NA,NA,basic,custom_main_text1
470,What do you think your friend meant?,NA,It is small relative to other,images/bird-parade-basic.png,13,NA,NA,NA,No,2,birds,susan,NA,NA,0,yes,"You and your friend see another member of the group <br /> (not pictured), and your friend says: <br/><b>That's a small hummingbird.</b>",prenominal,NA,33,hummingbird,NA,0,NA,NA,graduated_high_school,small,NA,English,female,NA,NA,You and your friend see the following:,2,1567789810876,NA,NA,1,NA,NA,NA,basic,custom_main_text1
470,What do you think your friend meant?,NA,It is big relative to other,images/dog-parade-basic2.png,13,NA,NA,NA,No,2,dogs2,susan,NA,NA,0,yes,"You and your friend see another member of the group <br /> (not pictured), and your friend says: <br/><b>That's a big one.</b>",prenominal,NA,33,Dogs,NA,1,NA,NA,graduated_high_school,big,NA,English,female,NA,NA,You and your friend see the following:,3,1567789810876,NA,NA,1,NA,NA,NA,basic,custom_main_text1
470,NA,swordfish,NA,NA,13,warmup/goldfish.png,swordfish,This is a,No,2,fish,susan,NA,goldfish,NA,yes,Please label the pictures below.,NA,NA,33,NA,NA,NA,warmup/swordfish.jpg,fish,graduated_high_school,NA,NA,English,female,NA,fish,NA,1,1567789810876,1,This is a,1,These are both,goldfish,NA,NA,warmup2
470,NA,pinetree,NA,NA,13,warmup/bonsai.jpg,redwood or sequoia (choose one),This is a,No,2,trees,susan,NA,bonsai,NA,yes,Please label the pictures below.,NA,NA,33,NA,NA,NA,warmup/sequoia.png,trees,graduated_high_school,NA,NA,English,female,NA,trees,NA,2,1567789810876,1,This is a,1,These are both,bonsai tree,NA,NA,warmup2
470,NA,redwood,NA,NA,13,warmup/bonsai.jpg,redwood or sequoia (choose one),This is a,No,2,trees,susan,NA,bonsai,NA,yes,Please label the pictures below.,NA,NA,33,NA,NA,NA,warmup/sequoia.png,trees,graduated_high_school,NA,NA,English,female,NA,trees,NA,2,1567789810876,2,This is a,1,These are both,bonsai,NA,NA,warmup2
470,NA,dandelion,NA,NA,13,warmup/sunflower.png,dandelion,This is a,No,2,flowers,susan,NA,sunflower,NA,yes,Please label the pictures below.,NA,NA,33,NA,NA,NA,warmup/dandelion.jpg,flowers,graduated_high_school,NA,NA,English,female,NA,flowers,NA,3,1567789810876,1,This is a,1,These are both,sunflower,NA,NA,warmup2
470,What do you think your friend meant?,NA,It is small relative to other,images/flower-parade-sunflower.png,13,NA,NA,NA,No,2,flowers,susan,NA,NA,2,yes,"You and your friend see another member of the group <br /> (not pictured), and your friend says: <br/><b>That's a small sunflower.</b>",prenominal,NA,33,sunflowers,NA,0,NA,NA,graduated_high_school,small,NA,English,female,NA,NA,You and your friend see the following:,1,1567789810876,NA,NA,1,NA,NA,NA,incongr,custom_main_text2
470,What do you think your friend meant?,NA,It is small relative to other,images/tree-parade-redwood.png,13,NA,NA,NA,No,2,trees,susan,NA,NA,2,yes,"You and your friend see another member of the group <br /> (not pictured), and your friend says: <br/><b>That's a small one.</b>",prenominal,NA,33,trees,NA,1,NA,NA,graduated_high_school,small,NA,English,female,NA,NA,You and your friend see the following:,2,1567789810876,NA,NA,1,NA,NA,NA,incongr,custom_main_text2
470,Please rephrase your friend's comment.,NA,It is small relative to other,images/fish-parade-goldfish.png,13,NA,NA,NA,No,2,fish,susan,NA,NA,1,yes,"You and your friend see another member of the group <br /> (not pictured), and your friend says: <br/><b>That's a small one.</b>",prenominal,NA,33,goldfish,NA,1,NA,NA,graduated_high_school,small,NA,English,female,NA,NA,You and your friend see the following:,3,1567789810876,NA,NA,1,NA,NA,NA,congr,custom_main_text2
464,<i>What do you think Speaker A meant? </i>,NA,The Empire State Building is tall relative to other,NA,13,NA,NA,NA,Nope,2,NA,Margaret,1,NA,NA,yes,NA,NA,"<b> Speaker A: ""The Empire State Building is tall.""</b>",23,buildings,N/A,NA,NA,NA,some_college,NA,comp_class_warmup,English,male,NA,NA,In the main trials you will be asked to rephrase something a person said. The utterance will contain a word that is <i>relative</i> and your task is to figure out what it is relative to. <br /> <br /> For example: <br /><br />,1,1567790412531,1,NA,1,NA,NA,"buildings, scyscrapers, houses, constructions (choose one)",NA,comp_class_warmup
464,NA,puppy,NA,NA,13,warmup/doberman.png,chihuahua,This is a,Nope,2,dogs,Margaret,NA,doberman,NA,yes,Please label the pictures below.,NA,NA,23,NA,N/A,NA,warmup/chihuahua.jpg,dogs,some_college,NA,NA,English,male,NA,dogs,NA,1,1567790412531,1,This is a,1,These are both,dog,NA,NA,warmup1
464,NA,chihuahua,NA,NA,13,warmup/doberman.png,chihuahua,This is a,Nope,2,dogs,Margaret,NA,doberman,NA,yes,Please label the pictures below.,NA,NA,23,NA,N/A,NA,warmup/chihuahua.jpg,dogs,some_college,NA,NA,English,male,NA,dogs,NA,1,1567790412531,2,This is a,1,These are both,doberman,NA,NA,warmup1
464,NA,dandelion,NA,NA,13,warmup/sunflower.png,dandelion,This is a,Nope,2,flowers,Margaret,NA,sunflower,NA,yes,Please label the pictures below.,NA,NA,23,NA,N/A,NA,warmup/dandelion.jpg,flowers,some_college,NA,NA,English,male,NA,flowers,NA,2,1567790412531,1,This is a,1,These are both,sunflower,NA,NA,warmup1
464,NA,hummingbird,NA,NA,13,warmup/eagle.jpg,hummingbird,This is a,Nope,2,birds,Margaret,NA,eagle,NA,yes,Please label the pictures below.,NA,NA,23,NA,N/A,NA,warmup/colibri.jpg,birds,some_college,NA,NA,English,male,NA,birds,NA,3,1567790412531,1,This is an,1,These are both,eagle,NA,NA,warmup1
464,What do you think your friend meant?,NA,It is big relative to other,images/dog-parade-basic.png,13,NA,NA,NA,Nope,2,dogs1,Margaret,NA,NA,0,yes,"You and your friend see another member of the group <br /> (not pictured), and your friend says: <br/><b>That's a big doberman.</b>",prenominal,NA,23,dogs,N/A,0,NA,NA,some_college,big,NA,English,male,NA,NA,You and your friend see the following:,1,1567790412531,NA,NA,1,NA,NA,NA,basic,custom_main_text1
464,What do you think your friend meant?,NA,It is big relative to other,images/bird-parade-basic.png,13,NA,NA,NA,Nope,2,birds,Margaret,NA,NA,0,yes,"You and your friend see another member of the group <br /> (not pictured), and your friend says: <br/><b>That's a big one.</b>",prenominal,NA,23,birds,N/A,1,NA,NA,some_college,big,NA,English,male,NA,NA,You and your friend see the following:,2,1567790412531,NA,NA,1,NA,NA,NA,basic,custom_main_text1
464,What do you think your friend meant?,NA,It is big relative to other,images/flower-parade-dandelion.png,13,NA,NA,NA,Nope,2,flowers,Margaret,NA,NA,2,yes,"You and your friend see another member of the group <br /> (not pictured), and your friend says: <br/><b>That's a big one.</b>",prenominal,NA,23,dandelions,N/A,1,NA,NA,some_college,big,NA,English,male,NA,NA,You and your friend see the following:,3,1567790412531,NA,NA,1,NA,NA,NA,incongr,custom_main_text1
464,NA,big tree,NA,NA,13,warmup/bonsai.jpg,redwood or sequoia (choose one),This is a,Nope,2,trees,Margaret,NA,bonsai,NA,yes,Please label the pictures below.,NA,NA,23,NA,N/A,NA,warmup/sequoia.png,trees,some_college,NA,NA,English,male,NA,trees,NA,1,1567790412531,1,This is a,1,These are both,small tree,NA,NA,warmup2
464,NA,redwood,NA,NA,13,warmup/bonsai.jpg,redwood or sequoia (choose one),This is a,Nope,2,trees,Margaret,NA,bonsai,NA,yes,Please label the pictures below.,NA,NA,23,NA,N/A,NA,warmup/sequoia.png,trees,some_college,NA,NA,English,male,NA,trees,NA,1,1567790412531,2,This is a,1,These are both,bonsai,NA,NA,warmup2
464,NA,swordfish,NA,NA,13,warmup/goldfish.png,swordfish,This is a,Nope,2,fish,Margaret,NA,goldfish,NA,yes,Please label the pictures below.,NA,NA,23,NA,N/A,NA,warmup/swordfish.jpg,fish,some_college,NA,NA,English,male,NA,fish,NA,2,1567790412531,1,This is a,1,These are both,goldfish,NA,NA,warmup2
464,NA,pitbull,NA,NA,13,warmup/great-dane.jpg,pug,This is a,Nope,2,dogs,Margaret,NA,great dane,NA,yes,Please label the pictures below.,NA,NA,23,NA,N/A,NA,warmup/pug.jpg,dogs,some_college,NA,NA,English,male,NA,dogs,NA,3,1567790412531,1,This is a,1,These are both,hound,NA,NA,warmup2
464,NA,pug,NA,NA,13,warmup/great-dane.jpg,pug,This is a,Nope,2,dogs,Margaret,NA,great dane,NA,yes,Please label the pictures below.,NA,NA,23,NA,N/A,NA,warmup/pug.jpg,dogs,some_college,NA,NA,English,male,NA,dogs,NA,3,1567790412531,2,This is a,1,These are both,great dane,NA,NA,warmup2
464,What do you think your friend meant?,NA,It is small relative to other,images/dog-parade-pug.png,13,NA,NA,NA,Nope,2,dogs2,Margaret,NA,NA,1,yes,"You and your friend see another member of the group <br /> (not pictured), and your friend says: <br/><b>That's a small pug.</b>",prenominal,NA,23,pugs,N/A,0,NA,NA,some_college,small,NA,English,male,NA,NA,You and your friend see the following:,1,1567790412531,NA,NA,1,NA,NA,NA,congr,custom_main_text2
464,Please rephrase your friend's comment.,NA,It is small relative to other,images/fish-parade-goldfish.png,13,NA,NA,NA,Nope,2,fish,Margaret,NA,NA,1,yes,"You and your friend see another member of the group <br /> (not pictured), and your friend says: <br/><b>That's a small goldfish.</b>",prenominal,NA,23,goldfish,N/A,0,NA,NA,some_college,small,NA,English,male,NA,NA,You and your friend see the following:,2,1567790412531,NA,NA,1,NA,NA,NA,congr,custom_main_text2
464,What do you think your friend meant?,NA,It is big relative to other,images/tree-parade-basic.png,13,NA,NA,NA,Nope,2,trees,Margaret,NA,NA,0,yes,"You and your friend see another member of the group <br /> (not pictured), and your friend says: <br/><b>That's a big one.</b>",prenominal,NA,23,trees,N/A,1,NA,NA,some_college,big,NA,English,male,NA,NA,You and your friend see the following:,3,1567790412531,NA,NA,1,NA,NA,NA,basic,custom_main_text2
462,<i>What do you think Speaker A meant? </i>,NA,The Empire State Building is tall relative to other,NA,13,NA,NA,NA,NA,1,NA,Elizabeth,1,NA,NA,yes,NA,NA,"<b> Speaker A: ""The Empire State Building is tall.""</b>",38,buildings,NA,NA,NA,NA,some_college,NA,comp_class_warmup,english,male,NA,NA,In the main trials you will be asked to rephrase something a person said. The utterance will contain a word that is <i>relative</i> and your task is to figure out what it is relative to. <br /> <br /> For example: <br /><br />,1,1567790209299,1,NA,1.5,NA,NA,"buildings, scyscrapers, houses, constructions (choose one)",NA,comp_class_warmup
462,NA,huming bird,NA,NA,13,warmup/eagle.jpg,hummingbird,This is a,NA,1,birds,Elizabeth,NA,eagle,NA,yes,Please label the pictures below.,NA,NA,38,NA,NA,NA,warmup/colibri.jpg,birds,some_college,NA,NA,english,male,NA,birds,NA,1,1567790209299,1,This is an,1.5,These are both,eagle,NA,NA,warmup1
462,NA,humming bird,NA,NA,13,warmup/eagle.jpg,hummingbird,This is a,NA,1,birds,Elizabeth,NA,eagle,NA,yes,Please label the pictures below.,NA,NA,38,NA,NA,NA,warmup/colibri.jpg,birds,some_college,NA,NA,english,male,NA,birds,NA,1,1567790209299,2,This is an,1.5,These are both,eagle,NA,NA,warmup1
462,NA,humming bird,NA,NA,13,warmup/eagle.jpg,hummingbird,This is a,NA,1,birds,Elizabeth,NA,eagle,NA,yes,Please label the pictures below.,NA,NA,38,NA,NA,NA,warmup/colibri.jpg,birds,some_college,NA,NA,english,male,NA,birds,NA,1,1567790209299,3,This is an,1.5,These are both,eagle,NA,NA,warmup1
462,NA,hummingbird,NA,NA,13,warmup/eagle.jpg,hummingbird,This is a,NA,1,birds,Elizabeth,NA,eagle,NA,yes,Please label the pictures below.,NA,NA,38,NA,NA,NA,warmup/colibri.jpg,birds,some_college,NA,NA,english,male,NA,birds,NA,1,1567790209299,4,This is an,1.5,These are both,eagle,NA,NA,warmup1
462,NA,swordfis,NA,NA,13,warmup/goldfish.png,swordfish,This is a,NA,1,fish,Elizabeth,NA,goldfish,NA,yes,Please label the pictures below.,NA,NA,38,NA,NA,NA,warmup/swordfish.jpg,fish,some_college,NA,NA,english,male,NA,fish,NA,2,1567790209299,1,This is a,1.5,These are both,goldfish,NA,NA,warmup1
462,NA,swordfish\nswordfish,NA,NA,13,warmup/goldfish.png,swordfish,This is a,NA,1,fish,Elizabeth,NA,goldfish,NA,yes,Please label the pictures below.,NA,NA,38,NA,NA,NA,warmup/swordfish.jpg,fish,some_college,NA,NA,english,male,NA,fish,NA,2,1567790209299,2,This is a,1.5,These are both,goldfish,NA,NA,warmup1
462,NA,swordfish\nswordfish,NA,NA,13,warmup/goldfish.png,swordfish,This is a,NA,1,fish,Elizabeth,NA,goldfish,NA,yes,Please label the pictures below.,NA,NA,38,NA,NA,NA,warmup/swordfish.jpg,fish,some_college,NA,NA,english,male,NA,fish,NA,2,1567790209299,3,This is a,1.5,These are both,goldfish,NA,NA,warmup1
462,NA,swordfish\nswordfish,NA,NA,13,warmup/goldfish.png,swordfish,This is a,NA,1,fish,Elizabeth,NA,goldfish,NA,yes,Please label the pictures below.,NA,NA,38,NA,NA,NA,warmup/swordfish.jpg,fish,some_college,NA,NA,english,male,NA,fish,NA,2,1567790209299,4,This is a,1.5,These are both,goldfish,NA,NA,warmup1
462,NA,swordfish\nswordfish,NA,NA,13,warmup/goldfish.png,swordfish,This is a,NA,1,fish,Elizabeth,NA,goldfish,NA,yes,Please label the pictures below.,NA,NA,38,NA,NA,NA,warmup/swordfish.jpg,fish,some_college,NA,NA,english,male,NA,fish,NA,2,1567790209299,5,This is a,1.5,These are both,goldfish,NA,NA,warmup1
462,NA,swordfish\nswordfish,NA,NA,13,warmup/goldfish.png,swordfish,This is a,NA,1,fish,Elizabeth,NA,goldfish,NA,yes,Please label the pictures below.,NA,NA,38,NA,NA,NA,warmup/swordfish.jpg,fish,some_college,NA,NA,english,male,NA,fish,NA,2,1567790209299,6,This is a,1.5,These are both,goldfish,NA,NA,warmup1
462,NA,swordfish \nswordfish,NA,NA,13,warmup/goldfish.png,swordfish,This is a,NA,1,fish,Elizabeth,NA,goldfish,NA,yes,Please label the pictures below.,NA,NA,38,NA,NA,NA,warmup/swordfish.jpg,fish,some_college,NA,NA,english,male,NA,fish,NA,2,1567790209299,7,This is a,1.5,These are both,goldfish,NA,NA,warmup1
462,NA,swordfish \nswordfish,NA,NA,13,warmup/goldfish.png,swordfish,This is a,NA,1,fish,Elizabeth,NA,goldfish,NA,yes,Please label the pictures below.,NA,NA,38,NA,NA,NA,warmup/swordfish.jpg,fish,some_college,NA,NA,english,male,NA,fish,NA,2,1567790209299,8,This is a,1.5,These are both,goldfish,NA,NA,warmup1
462,NA,swordfish \nswordfish,NA,NA,13,warmup/goldfish.png,swordfish,This is a,NA,1,fish,Elizabeth,NA,goldfish,NA,yes,Please label the pictures below.,NA,NA,38,NA,NA,NA,warmup/swordfish.jpg,fish,some_college,NA,NA,english,male,NA,fish,NA,2,1567790209299,9,This is a,1.5,These are both,goldfish,NA,NA,warmup1
462,NA,swordfish \nswordfish,NA,NA,13,warmup/goldfish.png,swordfish,This is a,NA,1,fish,Elizabeth,NA,goldfish,NA,yes,Please label the pictures below.,NA,NA,38,NA,NA,NA,warmup/swordfish.jpg,fish,some_college,NA,NA,english,male,NA,fish,NA,2,1567790209299,10,This is a,1.5,These are both,goldfish,NA,NA,warmup1
462,NA,swordfish \nswordfish,NA,NA,13,warmup/goldfish.png,swordfish,This is a,NA,1,fish,Elizabeth,NA,goldfish,NA,yes,Please label the pictures below.,NA,NA,38,NA,NA,NA,warmup/swordfish.jpg,fish,some_college,NA,NA,english,male,NA,fish,NA,2,1567790209299,11,This is a,1.5,These are both,goldfish,NA,NA,warmup1
462,NA,swordfish,NA,NA,13,warmup/goldfish.png,swordfish,This is a,NA,1,fish,Elizabeth,NA,goldfish,NA,yes,Please label the pictures below.,NA,NA,38,NA,NA,NA,warmup/swordfish.jpg,fish,some_college,NA,NA,english,male,NA,fish,NA,2,1567790209299,12,This is a,1.5,These are both,goldfish,NA,NA,warmup1
462,NA,weed,NA,NA,13,warmup/sunflower.png,dandelion,This is a,NA,1,flowers,Elizabeth,NA,sunflower,NA,yes,Please label the pictures below.,NA,NA,38,NA,NA,NA,warmup/dandelion.jpg,flowers,some_college,NA,NA,english,male,NA,flowers,NA,3,1567790209299,1,This is a,1.5,These are both,sunflower,NA,NA,warmup1
462,NA,dandelion,NA,NA,13,warmup/sunflower.png,dandelion,This is a,NA,1,flowers,Elizabeth,NA,sunflower,NA,yes,Please label the pictures below.,NA,NA,38,NA,NA,NA,warmup/dandelion.jpg,flowers,some_college,NA,NA,english,male,NA,flowers,NA,3,1567790209299,2,This is a,1.5,These are both,sunflower,NA,NA,warmup1
462,What do you think your friend meant?,NA,It is big relative to other,images/bird-parade-basic.png,13,NA,NA,NA,NA,1,birds,Elizabeth,NA,NA,0,yes,"You and your friend see another member of the group <br /> (not pictured), and your friend says: <br/><b>That's a big one.</b>",prenominal,NA,38,birds,NA,1,NA,NA,some_college,big,NA,english,male,NA,NA,You and your friend see the following:,1,1567790209299,NA,NA,1.5,NA,NA,NA,basic,custom_main_text1
462,Please rephrase your friend's comment.,NA,It is small relative to other,images/fish-parade-basic.png,13,NA,NA,NA,NA,1,fish,Elizabeth,NA,NA,0,yes,"You and your friend see another member of the group <br /> (not pictured), and your friend says: <br/><b>That's a small goldfish.</b>",prenominal,NA,38,fish,NA,0,NA,NA,some_college,small,NA,english,male,NA,NA,You and your friend see the following:,2,1567790209299,NA,NA,1.5,NA,NA,NA,basic,custom_main_text1
462,What do you think your friend meant?,NA,It is big relative to other,images/flower-parade-basic.png,13,NA,NA,NA,NA,1,flowers,Elizabeth,NA,NA,0,yes,"You and your friend see another member of the group <br /> (not pictured), and your friend says: <br/><b>That's a big one.</b>",prenominal,NA,38,flowers,NA,1,NA,NA,some_college,big,NA,english,male,NA,NA,You and your friend see the following:,3,1567790209299,NA,NA,1.5,NA,NA,NA,basic,custom_main_text1
462,NA,chiwawa,NA,NA,13,warmup/doberman.png,chihuahua,This is a,NA,1,dogs,Elizabeth,NA,doberman,NA,yes,Please label the pictures below.,NA,NA,38,NA,NA,NA,warmup/chihuahua.jpg,dogs,some_college,NA,NA,english,male,NA,dogs,NA,1,1567790209299,1,This is a,1.5,These are both,domermine,NA,NA,warmup2
462,NA,chihuahua,NA,NA,13,warmup/doberman.png,chihuahua,This is a,NA,1,dogs,Elizabeth,NA,doberman,NA,yes,Please label the pictures below.,NA,NA,38,NA,NA,NA,warmup/chihuahua.jpg,dogs,some_college,NA,NA,english,male,NA,dogs,NA,1,1567790209299,2,This is a,1.5,These are both,doberman,NA,NA,warmup2
462,NA,oak tree,NA,NA,13,warmup/bonsai.jpg,redwood or sequoia (choose one),This is a,NA,1,trees,Elizabeth,NA,bonsai,NA,yes,Please label the pictures below.,NA,NA,38,NA,NA,NA,warmup/sequoia.png,trees,some_college,NA,NA,english,male,NA,trees,NA,2,1567790209299,1,This is a,1.5,These are both,bunzi,NA,NA,warmup2
462,NA,redwood,NA,NA,13,warmup/bonsai.jpg,redwood or sequoia (choose one),This is a,NA,1,trees,Elizabeth,NA,bonsai,NA,yes,Please label the pictures below.,NA,NA,38,NA,NA,NA,warmup/sequoia.png,trees,some_college,NA,NA,english,male,NA,trees,NA,2,1567790209299,2,This is a,1.5,These are both,bonsai,NA,NA,warmup2
462,NA,pug,NA,NA,13,warmup/great-dane.jpg,pug,This is a,NA,1,dogs,Elizabeth,NA,great dane,NA,yes,Please label the pictures below.,NA,NA,38,NA,NA,NA,warmup/pug.jpg,dog,some_college,NA,NA,english,male,NA,dogs,NA,3,1567790209299,1,This is a,1.5,These are both,big,NA,NA,warmup2
462,NA,pug,NA,NA,13,warmup/great-dane.jpg,pug,This is a,NA,1,dogs,Elizabeth,NA,great dane,NA,yes,Please label the pictures below.,NA,NA,38,NA,NA,NA,warmup/pug.jpg,dog,some_college,NA,NA,english,male,NA,dogs,NA,3,1567790209299,2,This is a,1.5,These are both,great dane,NA,NA,warmup2
462,NA,pug,NA,NA,13,warmup/great-dane.jpg,pug,This is a,NA,1,dogs,Elizabeth,NA,great dane,NA,yes,Please label the pictures below.,NA,NA,38,NA,NA,NA,warmup/pug.jpg,dog,some_college,NA,NA,english,male,NA,dogs,NA,3,1567790209299,3,This is a,1.5,These are both,great dane,NA,NA,warmup2
462,NA,pug,NA,NA,13,warmup/great-dane.jpg,pug,This is a,NA,1,dogs,Elizabeth,NA,great dane,NA,yes,Please label the pictures below.,NA,NA,38,NA,NA,NA,warmup/pug.jpg,dog,some_college,NA,NA,english,male,NA,dogs,NA,3,1567790209299,4,This is a,1.5,These are both,great Dane,NA,NA,warmup2
462,NA,pug,NA,NA,13,warmup/great-dane.jpg,pug,This is a,NA,1,dogs,Elizabeth,NA,great dane,NA,yes,Please label the pictures below.,NA,NA,38,NA,NA,NA,warmup/pug.jpg,dog,some_college,NA,NA,english,male,NA,dogs,NA,3,1567790209299,5,This is a,1.5,These are both,great Dane,NA,NA,warmup2
462,NA,pug,NA,NA,13,warmup/great-dane.jpg,pug,This is a,NA,1,dogs,Elizabeth,NA,great dane,NA,yes,Please label the pictures below.,NA,NA,38,NA,NA,NA,warmup/pug.jpg,dog,some_college,NA,NA,english,male,NA,dogs,NA,3,1567790209299,6,This is a,1.5,These are both,great Dane,NA,NA,warmup2
462,NA,pug,NA,NA,13,warmup/great-dane.jpg,pug,This is a,NA,1,dogs,Elizabeth,NA,great dane,NA,yes,Please label the pictures below.,NA,NA,38,NA,NA,NA,warmup/pug.jpg,dog,some_college,NA,NA,english,male,NA,dogs,NA,3,1567790209299,7,This is a,1.5,These are both,great Dane,NA,NA,warmup2
462,NA,pug,NA,NA,13,warmup/great-dane.jpg,pug,This is a,NA,1,dogs,Elizabeth,NA,great dane,NA,yes,Please label the pictures below.,NA,NA,38,NA,NA,NA,warmup/pug.jpg,dog,some_college,NA,NA,english,male,NA,dogs,NA,3,1567790209299,8,This is a,1.5,These are both,great Dane,NA,NA,warmup2
462,NA,pug,NA,NA,13,warmup/great-dane.jpg,pug,This is a,NA,1,dogs,Elizabeth,NA,great dane,NA,yes,Please label the pictures below.,NA,NA,38,NA,NA,NA,warmup/pug.jpg,dog,some_college,NA,NA,english,male,NA,dogs,NA,3,1567790209299,9,This is a,1.5,These are both,great Dane,NA,NA,warmup2
462,NA,pug,NA,NA,13,warmup/great-dane.jpg,pug,This is a,NA,1,dogs,Elizabeth,NA,great dane,NA,yes,Please label the pictures below.,NA,NA,38,NA,NA,NA,warmup/pug.jpg,dog,some_college,NA,NA,english,male,NA,dogs,NA,3,1567790209299,10,This is a,1.5,These are both,great Dane,NA,NA,warmup2
462,NA,pug,NA,NA,13,warmup/great-dane.jpg,pug,This is a,NA,1,dogs,Elizabeth,NA,great dane,NA,yes,Please label the pictures below.,NA,NA,38,NA,NA,NA,warmup/pug.jpg,dog,some_college,NA,NA,english,male,NA,dogs,NA,3,1567790209299,11,This is a,1.5,These are both,great Dane,NA,NA,warmup2
462,NA,pug,NA,NA,13,warmup/great-dane.jpg,pug,This is a,NA,1,dogs,Elizabeth,NA,great dane,NA,yes,Please label the pictures below.,NA,NA,38,NA,NA,NA,warmup/pug.jpg,dog,some_college,NA,NA,english,male,NA,dogs,NA,3,1567790209299,12,This is a,1.5,These are both,great Dane,NA,NA,warmup2
462,NA,pug,NA,NA,13,warmup/great-dane.jpg,pug,This is a,NA,1,dogs,Elizabeth,NA,great dane,NA,yes,Please label the pictures below.,NA,NA,38,NA,NA,NA,warmup/pug.jpg,dogs,some_college,NA,NA,english,male,NA,dogs,NA,3,1567790209299,13,This is a,1.5,These are both,great Dane,NA,NA,warmup2
462,What do you think your friend meant?,NA,It is small relative to other,images/tree-parade-bonsai.png,13,NA,NA,NA,NA,1,trees,Elizabeth,NA,NA,1,yes,"You and your friend see another member of the group <br /> (not pictured), and your friend says: <br/><b>That's a small one.</b>",prenominal,NA,38,bonsai,NA,1,NA,NA,some_college,small,NA,english,male,NA,NA,You and your friend see the following:,1,1567790209299,NA,NA,1.5,NA,NA,NA,congr,custom_main_text2
462,What do you think your friend meant?,NA,It is big relative to other,images/dog-parade-pug.png,13,NA,NA,NA,NA,1,dogs2,Elizabeth,NA,NA,2,yes,"You and your friend see another member of the group <br /> (not pictured), and your friend says: <br/><b>That's a big pug.</b>",prenominal,NA,38,pugs,NA,0,NA,NA,some_college,big,NA,english,male,NA,NA,You and your friend see the following:,2,1567790209299,NA,NA,1.5,NA,NA,NA,incongr,custom_main_text2
462,What do you think your friend meant?,NA,It is small relative to other,images/dog-parade-doberman.png,13,NA,NA,NA,NA,1,dogs1,Elizabeth,NA,NA,2,yes,"You and your friend see another member of the group <br /> (not pictured), and your friend says: <br/><b>That's a small doberman.</b>",prenominal,NA,38,Doberman,NA,0,NA,NA,some_college,small,NA,english,male,NA,NA,You and your friend see the following:,3,1567790209299,NA,NA,1.5,NA,NA,NA,incongr,custom_main_text2
460,<i>What do you think Speaker A meant? </i>,NA,The Empire State Building is tall relative to other,NA,13,NA,NA,NA,Everything worked well,1,NA,linda,1,NA,NA,yes,NA,NA,"<b> Speaker A: ""The Empire State Building is tall.""</b>",29,buildings,NA,NA,NA,NA,graduated_college,NA,comp_class_warmup,English,female,NA,NA,In the main trials you will be asked to rephrase something a person said. The utterance will contain a word that is <i>relative</i> and your task is to figure out what it is relative to. <br /> <br /> For example: <br /><br />,1,1567790201970,1,NA,1.5,NA,NA,"buildings, scyscrapers, houses, constructions (choose one)",NA,comp_class_warmup
460,NA,dandelion,NA,NA,13,warmup/sunflower.png,dandelion,This is a,Everything worked well,1,flowers,linda,NA,sunflower,NA,yes,Please label the pictures below.,NA,NA,29,NA,NA,NA,warmup/dandelion.jpg,flowers,graduated_college,NA,NA,English,female,NA,flowers,NA,1,1567790201970,1,This is a,1.5,These are both,sunflower,NA,NA,warmup1
460,NA,pug,NA,NA,13,warmup/great-dane.jpg,pug,This is a,Everything worked well,1,dogs,linda,NA,great dane,NA,yes,Please label the pictures below.,NA,NA,29,NA,NA,NA,warmup/pug.jpg,dogs,graduated_college,NA,NA,English,female,NA,dogs,NA,2,1567790201970,1,This is a,1.5,These are both,great dane,NA,NA,warmup1
460,NA,hummingbird,NA,NA,13,warmup/eagle.jpg,hummingbird,This is a,Everything worked well,1,birds,linda,NA,eagle,NA,yes,Please label the pictures below.,NA,NA,29,NA,NA,NA,warmup/colibri.jpg,birds,graduated_college,NA,NA,English,female,NA,birds,NA,3,1567790201970,1,This is an,1.5,These are both,eagle,NA,NA,warmup1
460,What do you think your friend meant?,NA,It is small relative to other,images/bird-parade-basic.png,13,NA,NA,NA,Everything worked well,1,birds,linda,NA,NA,0,yes,"You and your friend see another member of the group <br /> (not pictured), and your friend says: <br/><b>That's a small one.</b>",prenominal,NA,29,birds,NA,1,NA,NA,graduated_college,small,NA,English,female,NA,NA,You and your friend see the following:,1,1567790201970,NA,NA,1.5,NA,NA,NA,basic,custom_main_text1
460,What do you think your friend meant?,NA,It is big relative to other,images/flower-parade-dandelion.png,13,NA,NA,NA,Everything worked well,1,flowers,linda,NA,NA,2,yes,"You and your friend see another member of the group <br /> (not pictured), and your friend says: <br/><b>That's a big dandelion.</b>",prenominal,NA,29,dandelions,NA,0,NA,NA,graduated_college,big,NA,English,female,NA,NA,You and your friend see the following:,2,1567790201970,NA,NA,1.5,NA,NA,NA,incongr,custom_main_text1
460,What do you think your friend meant?,NA,It is big relative to other,images/dog-parade-great-dane.png,13,NA,NA,NA,Everything worked well,1,dogs2,linda,NA,NA,1,yes,"You and your friend see another member of the group <br /> (not pictured), and your friend says: <br/><b>That's a big great dane.</b>",prenominal,NA,29,great danes,NA,0,NA,NA,graduated_college,big,NA,English,female,NA,NA,You and your friend see the following:,3,1567790201970,NA,NA,1.5,NA,NA,NA,congr,custom_main_text1
460,NA,sequoia,NA,NA,13,warmup/bonsai.jpg,redwood or sequoia (choose one),This is a,Everything worked well,1,trees,linda,NA,bonsai,NA,yes,Please label the pictures below.,NA,NA,29,NA,NA,NA,warmup/sequoia.png,trees,graduated_college,NA,NA,English,female,NA,trees,NA,1,1567790201970,1,This is a,1.5,These are both,bonsai,NA,NA,warmup2
460,NA,bluefin tuna,NA,NA,13,warmup/goldfish.png,swordfish,This is a,Everything worked well,1,fish,linda,NA,goldfish,NA,yes,Please label the pictures below.,NA,NA,29,NA,NA,NA,warmup/swordfish.jpg,fish,graduated_college,NA,NA,English,female,NA,fish,NA,2,1567790201970,1,This is a,1.5,These are both,goldfish,NA,NA,warmup2
460,NA,swordfish,NA,NA,13,warmup/goldfish.png,swordfish,This is a,Everything worked well,1,fish,linda,NA,goldfish,NA,yes,Please label the pictures below.,NA,NA,29,NA,NA,NA,warmup/swordfish.jpg,fish,graduated_college,NA,NA,English,female,NA,fish,NA,2,1567790201970,2,This is a,1.5,These are both,goldfish,NA,NA,warmup2
460,NA,chihuahua,NA,NA,13,warmup/doberman.png,chihuahua,This is a,Everything worked well,1,dogs,linda,NA,doberman,NA,yes,Please label the pictures below.,NA,NA,29,NA,NA,NA,warmup/chihuahua.jpg,dogs,graduated_college,NA,NA,English,female,NA,dogs,NA,3,1567790201970,1,This is a,1.5,These are both,doberman,NA,NA,warmup2
460,What do you think your friend meant?,NA,It is small relative to other,images/tree-parade-basic.png,13,NA,NA,NA,Everything worked well,1,trees,linda,NA,NA,0,yes,"You and your friend see another member of the group <br /> (not pictured), and your friend says: <br/><b>That's a small bonsai.</b>",prenominal,NA,29,bonsai,NA,0,NA,NA,graduated_college,small,NA,English,female,NA,NA,You and your friend see the following:,1,1567790201970,NA,NA,1.5,NA,NA,NA,basic,custom_main_text2
460,What do you think your friend meant?,NA,It is big relative to other,images/dog-parade-basic.png,13,NA,NA,NA,Everything worked well,1,dogs1,linda,NA,NA,0,yes,"You and your friend see another member of the group <br /> (not pictured), and your friend says: <br/><b>That's a big one.</b>",prenominal,NA,29,dogs,NA,1,NA,NA,graduated_college,big,NA,English,female,NA,NA,You and your friend see the following:,2,1567790201970,NA,NA,1.5,NA,NA,NA,basic,custom_main_text2
460,Please rephrase your friend's comment.,NA,It is big relative to other,images/fish-parade-swordfish.png,13,NA,NA,NA,Everything worked well,1,fish,linda,NA,NA,1,yes,"You and your friend see another member of the group <br /> (not pictured), and your friend says: <br/><b>That's a big one.</b>",prenominal,NA,29,swordfish,NA,1,NA,NA,graduated_college,big,NA,English,female,NA,NA,You and your friend see the following:,3,1567790201970,NA,NA,1.5,NA,NA,NA,congr,custom_main_text2
459,<i>What do you think Speaker A meant? </i>,NA,The Empire State Building is tall relative to other,NA,13,NA,NA,NA,no,1,NA,jessica,1,NA,NA,yes,NA,NA,"<b> Speaker A: ""The Empire State Building is tall.""</b>",23,buildings,just really do hope to see a bonus with this for my time,NA,NA,NA,some_college,NA,comp_class_warmup,English,male,NA,NA,In the main trials you will be asked to rephrase something a person said. The utterance will contain a word that is <i>relative</i> and your task is to figure out what it is relative to. <br /> <br /> For example: <br /><br />,1,1567790122656,1,NA,1.5,NA,NA,"buildings, scyscrapers, houses, constructions (choose one)",NA,comp_class_warmup
459,NA,large fish,NA,NA,13,warmup/goldfish.png,swordfish,This is a,no,1,fish,jessica,NA,goldfish,NA,yes,Please label the pictures below.,NA,NA,23,NA,just really do hope to see a bonus with this for my time,NA,warmup/swordfish.jpg,fish,some_college,NA,NA,English,male,NA,fish,NA,1,1567790122656,1,This is a,1.5,These are both,small fish,NA,NA,warmup1
459,NA,large fish,NA,NA,13,warmup/goldfish.png,swordfish,This is a,no,1,fish,jessica,NA,goldfish,NA,yes,Please label the pictures below.,NA,NA,23,NA,just really do hope to see a bonus with this for my time,NA,warmup/swordfish.jpg,fish,some_college,NA,NA,English,male,NA,fish,NA,1,1567790122656,2,This is a,1.5,These are both,small fish,NA,NA,warmup1
459,NA,large fish,NA,NA,13,warmup/goldfish.png,swordfish,This is a,no,1,fish,jessica,NA,goldfish,NA,yes,Please label the pictures below.,NA,NA,23,NA,just really do hope to see a bonus with this for my time,NA,warmup/swordfish.jpg,fish,some_college,NA,NA,English,male,NA,fish,NA,1,1567790122656,3,This is a,1.5,These are both,small fish,NA,NA,warmup1
459,NA,swordfish,NA,NA,13,warmup/goldfish.png,swordfish,This is a,no,1,fish,jessica,NA,goldfish,NA,yes,Please label the pictures below.,NA,NA,23,NA,just really do hope to see a bonus with this for my time,NA,warmup/swordfish.jpg,fish,some_college,NA,NA,English,male,NA,fish,NA,1,1567790122656,4,This is a,1.5,These are both,goldfish,NA,NA,warmup1
459,NA,tree,NA,NA,13,warmup/bonsai.jpg,redwood or sequoia (choose one),This is a,no,1,trees,jessica,NA,bonsai,NA,yes,Please label the pictures below.,NA,NA,23,NA,just really do hope to see a bonus with this for my time,NA,warmup/sequoia.png,tree,some_college,NA,NA,English,male,NA,trees,NA,2,1567790122656,1,This is a,1.5,These are both,tree,NA,NA,warmup1
