submission_id,question,response1,sentence_left,context_picture,experiment_id,picture2,correct1,question1,problems,enjoyment,item,botresponse,trials,correct2,pic_spec,understand,text,condition,sentence,age,response,comments,ref_spec,picture1,response3,education,target_size,name,languages,sex,RT,correct3,context,trial_number,startTime,attempts,question3,fairprice,question2,response2,correct,adj_cond,trial_name
551,<i>What do you think Speaker A meant? </i>,NA,The Empire State Building is tall relative to other,NA,13,NA,NA,NA,NA,1,NA,Susan,1,NA,NA,yes,NA,NA,"<b> Speaker A: ""The Empire State Building is tall.""</b>",26,buildings,NA,NA,NA,NA,higher_degree,NA,comp_class_warmup,English,female,NA,NA,In the main trials you will be asked to rephrase something a person said. The utterance will contain a word that is <i>relative</i> and your task is to figure out what it is relative to. <br /> <br /> For example: <br /><br />,1,1570716026607,1,NA,1,NA,NA,"buildings, scyscrapers, houses, constructions (choose one)",NA,comp_class_warmup
551,NA,small flower,NA,NA,13,warmup/sunflower.png,dandelion,This is a,NA,1,flowers,Susan,NA,sunflower,NA,yes,Please label the pictures below.,NA,NA,26,NA,NA,NA,warmup/dandelion.jpg,flowers,higher_degree,NA,NA,English,female,NA,flowers,NA,1,1570716026607,1,This is a,1,These are both,big flower,NA,NA,warmup1
551,NA,flower,NA,NA,13,warmup/sunflower.png,dandelion,This is a,NA,1,flowers,Susan,NA,sunflower,NA,yes,Please label the pictures below.,NA,NA,26,NA,NA,NA,warmup/dandelion.jpg,flowers,higher_degree,NA,NA,English,female,NA,flowers,NA,1,1570716026607,2,This is a,1,These are both,flower,NA,NA,warmup1
551,NA,flower,NA,NA,13,warmup/sunflower.png,dandelion,This is a,NA,1,flowers,Susan,NA,sunflower,NA,yes,Please label the pictures below.,NA,NA,26,NA,NA,NA,warmup/dandelion.jpg,yellow flowers,higher_degree,NA,NA,English,female,NA,flowers,NA,1,1570716026607,3,This is a,1,These are both,flower,NA,NA,warmup1
551,NA,danelion,NA,NA,13,warmup/sunflower.png,dandelion,This is a,NA,1,flowers,Susan,NA,sunflower,NA,yes,Please label the pictures below.,NA,NA,26,NA,NA,NA,warmup/dandelion.jpg,flowers,higher_degree,NA,NA,English,female,NA,flowers,NA,1,1570716026607,4,This is a,1,These are both,sunflower,NA,NA,warmup1
551,NA,dandelion,NA,NA,13,warmup/sunflower.png,dandelion,This is a,NA,1,flowers,Susan,NA,sunflower,NA,yes,Please label the pictures below.,NA,NA,26,NA,NA,NA,warmup/dandelion.jpg,flowers,higher_degree,NA,NA,English,female,NA,flowers,NA,1,1570716026607,5,This is a,1,These are both,sunflower,NA,NA,warmup1
551,NA,big tree,NA,NA,13,warmup/bonsai.jpg,redwood or sequoia (choose one),This is a,NA,1,trees,Susan,NA,bonsai,NA,yes,Please label the pictures below.,NA,NA,26,NA,NA,NA,warmup/sequoia.png,trees,higher_degree,NA,NA,English,female,NA,trees,NA,2,1570716026607,1,This is a,1,These are both,small tree,NA,NA,warmup1
551,NA,sequoia,NA,NA,13,warmup/bonsai.jpg,redwood or sequoia (choose one),This is a,NA,1,trees,Susan,NA,bonsai,NA,yes,Please label the pictures below.,NA,NA,26,NA,NA,NA,warmup/sequoia.png,trees,higher_degree,NA,NA,English,female,NA,trees,NA,2,1570716026607,2,This is a,1,These are both,bonsai,NA,NA,warmup1
551,NA,bulldog,NA,NA,13,warmup/great-dane.jpg,pug,This is a,NA,1,dogs,Susan,NA,great dane,NA,yes,Please label the pictures below.,NA,NA,26,NA,NA,NA,warmup/pug.jpg,dogs,higher_degree,NA,NA,English,female,NA,dogs,NA,3,1570716026607,1,This is a,1,These are both,sog,NA,NA,warmup1
551,NA,pug,NA,NA,13,warmup/great-dane.jpg,pug,This is a,NA,1,dogs,Susan,NA,great dane,NA,yes,Please label the pictures below.,NA,NA,26,NA,NA,NA,warmup/pug.jpg,dogs,higher_degree,NA,NA,English,female,NA,dogs,NA,3,1570716026607,2,This is a,1,These are both,great dane,NA,NA,warmup1
551,What do you think your friend meant?,NA,It is small relative to other,images/tree-parade-bonsai.png,13,NA,NA,NA,NA,1,trees,Susan,NA,NA,1,yes,"You and your friend see another  bonsai (not pictured), and your friend says: <br/><b>That's a small one.</b>",prenominal,NA,26,trees,NA,2,NA,NA,higher_degree,small,NA,English,female,NA,NA,You and your friend see the following:,1,1570716026607,NA,NA,1,NA,NA,NA,congr,custom_main_text1
551,What do you think your friend meant?,NA,It is small relative to other,images/flower-parade-basic.png,13,NA,NA,NA,NA,1,flowers,Susan,NA,NA,0,yes,"You and your friend see another  dandelion (not pictured), and your friend says: <br/><b>That's a small flower.</b>",prenominal,NA,26,flowers,NA,0,NA,NA,higher_degree,small,NA,English,female,NA,NA,You and your friend see the following:,2,1570716026607,NA,NA,1,NA,NA,NA,basic,custom_main_text1
551,What do you think your friend meant?,NA,It is big relative to other,images/dog-parade-great-dane.png,13,NA,NA,NA,NA,1,dogs2,Susan,NA,NA,1,yes,"You and your friend see another  great dane (not pictured), and your friend says: <br/><b>That's a big great dane.</b>",prenominal,NA,26,dogs,NA,1,NA,NA,higher_degree,big,NA,English,female,NA,NA,You and your friend see the following:,3,1570716026607,NA,NA,1,NA,NA,NA,congr,custom_main_text1
551,NA,robin,NA,NA,13,warmup/eagle.jpg,hummingbird,This is a,NA,1,birds,Susan,NA,eagle,NA,yes,Please label the pictures below.,NA,NA,26,NA,NA,NA,warmup/colibri.jpg,birds,higher_degree,NA,NA,English,female,NA,birds,NA,1,1570716026607,1,This is an,1,These are both,eagle,NA,NA,warmup2
551,NA,hummingbird,NA,NA,13,warmup/eagle.jpg,hummingbird,This is a,NA,1,birds,Susan,NA,eagle,NA,yes,Please label the pictures below.,NA,NA,26,NA,NA,NA,warmup/colibri.jpg,birds,higher_degree,NA,NA,English,female,NA,birds,NA,1,1570716026607,2,This is an,1,These are both,eagle,NA,NA,warmup2
551,NA,chihuahua,NA,NA,13,warmup/doberman.png,chihuahua,This is a,NA,1,dogs,Susan,NA,doberman,NA,yes,Please label the pictures below.,NA,NA,26,NA,NA,NA,warmup/chihuahua.jpg,dogs,higher_degree,NA,NA,English,female,NA,dogs,NA,2,1570716026607,1,This is a,1,These are both,german shepherd,NA,NA,warmup2
551,NA,chihuahua,NA,NA,13,warmup/doberman.png,chihuahua,This is a,NA,1,dogs,Susan,NA,doberman,NA,yes,Please label the pictures below.,NA,NA,26,NA,NA,NA,warmup/chihuahua.jpg,dogs,higher_degree,NA,NA,English,female,NA,dogs,NA,2,1570716026607,2,This is a,1,These are both,doberman,NA,NA,warmup2
551,NA,garfish,NA,NA,13,warmup/goldfish.png,swordfish,This is a,NA,1,fish,Susan,NA,goldfish,NA,yes,Please label the pictures below.,NA,NA,26,NA,NA,NA,warmup/swordfish.jpg,fishes,higher_degree,NA,NA,English,female,NA,fish,NA,3,1570716026607,1,This is a,1,These are both,goldfish,NA,NA,warmup2
551,NA,swordfish,NA,NA,13,warmup/goldfish.png,swordfish,This is a,NA,1,fish,Susan,NA,goldfish,NA,yes,Please label the pictures below.,NA,NA,26,NA,NA,NA,warmup/swordfish.jpg,fish,higher_degree,NA,NA,English,female,NA,fish,NA,3,1570716026607,2,This is a,1,These are both,goldfish,NA,NA,warmup2
551,What do you think your friend meant?,NA,It is big relative to other,images/bird-parade-eagle.png,13,NA,NA,NA,NA,1,birds,Susan,NA,NA,1,yes,"You and your friend see another  eagle (not pictured), and your friend says: <br/><b>That's a big one.</b>",prenominal,NA,26,eagles,NA,2,NA,NA,higher_degree,big,NA,English,female,NA,NA,You and your friend see the following:,1,1570716026607,NA,NA,1,NA,NA,NA,congr,custom_main_text2
551,Please rephrase your friend's comment.,NA,It is small relative to other,images/fish-parade-basic.png,13,NA,NA,NA,NA,1,fish,Susan,NA,NA,0,yes,"You and your friend see another  goldfish (not pictured), and your friend says: <br/><b>That's a small fish.</b>",prenominal,NA,26,fishes,NA,0,NA,NA,higher_degree,small,NA,English,female,NA,NA,You and your friend see the following:,2,1570716026607,NA,NA,1,NA,NA,NA,basic,custom_main_text2
551,What do you think your friend meant?,NA,It is big relative to other,images/dog-parade-basic.png,13,NA,NA,NA,NA,1,dogs1,Susan,NA,NA,0,yes,"You and your friend see another  doberman (not pictured), and your friend says: <br/><b>That's a big doberman.</b>",prenominal,NA,26,dogs,NA,1,NA,NA,higher_degree,big,NA,English,female,NA,NA,You and your friend see the following:,3,1570716026607,NA,NA,1,NA,NA,NA,basic,custom_main_text2
550,<i>What do you think Speaker A meant? </i>,NA,The Empire State Building is tall relative to other,NA,13,NA,NA,NA,No,2,NA,linda,1,NA,NA,yes,NA,NA,"<b> Speaker A: ""The Empire State Building is tall.""</b>",35,buildings,NA,NA,NA,NA,graduated_high_school,NA,comp_class_warmup,English,male,NA,NA,In the main trials you will be asked to rephrase something a person said. The utterance will contain a word that is <i>relative</i> and your task is to figure out what it is relative to. <br /> <br /> For example: <br /><br />,1,1570714678222,1,NA,1,NA,NA,"buildings, scyscrapers, houses, constructions (choose one)",NA,comp_class_warmup
550,NA,dog,NA,NA,13,warmup/doberman.png,chihuahua,This is a,No,2,dogs,linda,NA,doberman,NA,yes,Please label the pictures below.,NA,NA,35,NA,NA,NA,warmup/chihuahua.jpg,dogs,graduated_high_school,NA,NA,English,male,NA,dogs,NA,1,1570714678222,1,This is a,1,These are both,dog,NA,NA,warmup1
550,NA,chihuahua,NA,NA,13,warmup/doberman.png,chihuahua,This is a,No,2,dogs,linda,NA,doberman,NA,yes,Please label the pictures below.,NA,NA,35,NA,NA,NA,warmup/chihuahua.jpg,dogs,graduated_high_school,NA,NA,English,male,NA,dogs,NA,1,1570714678222,2,This is a,1,These are both,doberman,NA,NA,warmup1
550,NA,sailfish,NA,NA,13,warmup/goldfish.png,swordfish,This is a,No,2,fish,linda,NA,goldfish,NA,yes,Please label the pictures below.,NA,NA,35,NA,NA,NA,warmup/swordfish.jpg,fish,graduated_high_school,NA,NA,English,male,NA,fish,NA,2,1570714678222,1,This is a,1,These are both,goldfish,NA,NA,warmup1
550,NA,swordfish,NA,NA,13,warmup/goldfish.png,swordfish,This is a,No,2,fish,linda,NA,goldfish,NA,yes,Please label the pictures below.,NA,NA,35,NA,NA,NA,warmup/swordfish.jpg,fish,graduated_high_school,NA,NA,English,male,NA,fish,NA,2,1570714678222,2,This is a,1,These are both,goldfish,NA,NA,warmup1
550,NA,redwood,NA,NA,13,warmup/bonsai.jpg,redwood or sequoia (choose one),This is a,No,2,trees,linda,NA,bonsai,NA,yes,Please label the pictures below.,NA,NA,35,NA,NA,NA,warmup/sequoia.png,trees,graduated_high_school,NA,NA,English,male,NA,trees,NA,3,1570714678222,1,This is a,1,These are both,bonsai,NA,NA,warmup1
550,What do you think your friend meant?,NA,It is small relative to other,images/dog-parade-chihuahua.png,13,NA,NA,NA,No,2,dogs1,linda,NA,NA,1,yes,"You and your friend see another  chihuahua (not pictured), and your friend says: <br/><b>That's a small chihuahua.</b>",prenominal,NA,35,chihuahuas,NA,1,NA,NA,graduated_high_school,small,NA,English,male,NA,NA,You and your friend see the following:,1,1570714678222,NA,NA,1,NA,NA,NA,congr,custom_main_text1
550,What do you think your friend meant?,NA,It is small relative to other,images/tree-parade-basic.png,13,NA,NA,NA,No,2,trees,linda,NA,NA,0,yes,"You and your friend see another  bonsai (not pictured), and your friend says: <br/><b>That's a small bonsai.</b>",prenominal,NA,35,bonsai's,NA,1,NA,NA,graduated_high_school,small,NA,English,male,NA,NA,You and your friend see the following:,2,1570714678222,NA,NA,1,NA,NA,NA,basic,custom_main_text1
550,Please rephrase your friend's comment.,NA,It is big relative to other,images/fish-parade-basic.png,13,NA,NA,NA,No,2,fish,linda,NA,NA,0,yes,"You and your friend see another  swordfish (not pictured), and your friend says: <br/><b>That's a big fish.</b>",prenominal,NA,35,fish,NA,0,NA,NA,graduated_high_school,big,NA,English,male,NA,NA,You and your friend see the following:,3,1570714678222,NA,NA,1,NA,NA,NA,basic,custom_main_text1
550,NA,hummingbird,NA,NA,13,warmup/eagle.jpg,hummingbird,This is a,No,2,birds,linda,NA,eagle,NA,yes,Please label the pictures below.,NA,NA,35,NA,NA,NA,warmup/colibri.jpg,birds,graduated_high_school,NA,NA,English,male,NA,birds,NA,1,1570714678222,1,This is an,1,These are both,eagle,NA,NA,warmup2
550,NA,pug,NA,NA,13,warmup/great-dane.jpg,pug,This is a,No,2,dogs,linda,NA,great dane,NA,yes,Please label the pictures below.,NA,NA,35,NA,NA,NA,warmup/pug.jpg,dogs,graduated_high_school,NA,NA,English,male,NA,dogs,NA,2,1570714678222,1,This is a,1,These are both,great dane,NA,NA,warmup2
550,NA,dandelion,NA,NA,13,warmup/sunflower.png,dandelion,This is a,No,2,flowers,linda,NA,sunflower,NA,yes,Please label the pictures below.,NA,NA,35,NA,NA,NA,warmup/dandelion.jpg,flowers,graduated_high_school,NA,NA,English,male,NA,flowers,NA,3,1570714678222,1,This is a,1,These are both,sunflower,NA,NA,warmup2
550,What do you think your friend meant?,NA,It is big relative to other,images/flower-parade-basic.png,13,NA,NA,NA,No,2,flowers,linda,NA,NA,0,yes,"You and your friend see another  sunflower (not pictured), and your friend says: <br/><b>That's a big one.</b>",prenominal,NA,35,sunflowers,NA,2,NA,NA,graduated_high_school,big,NA,English,male,NA,NA,You and your friend see the following:,1,1570714678222,NA,NA,1,NA,NA,NA,basic,custom_main_text2
550,What do you think your friend meant?,NA,It is small relative to other,images/bird-parade-hummingbird.png,13,NA,NA,NA,No,2,birds,linda,NA,NA,1,yes,"You and your friend see another  hummingbird (not pictured), and your friend says: <br/><b>That's a small bird.</b>",prenominal,NA,35,hummingbirds,NA,0,NA,NA,graduated_high_school,small,NA,English,male,NA,NA,You and your friend see the following:,2,1570714678222,NA,NA,1,NA,NA,NA,congr,custom_main_text2
550,What do you think your friend meant?,NA,It is big relative to other,images/dog-parade-great-dane.png,13,NA,NA,NA,No,2,dogs2,linda,NA,NA,1,yes,"You and your friend see another  great dane (not pictured), and your friend says: <br/><b>That's a big one.</b>",prenominal,NA,35,dogs,NA,2,NA,NA,graduated_high_school,big,NA,English,male,NA,NA,You and your friend see the following:,3,1570714678222,NA,NA,1,NA,NA,NA,congr,custom_main_text2
549,<i>What do you think Speaker A meant? </i>,NA,The Empire State Building is tall relative to other,NA,13,NA,NA,NA,No,1,NA,barbara,1,NA,NA,yes,NA,NA,"<b> Speaker A: ""The Empire State Building is tall.""</b>",31,buildings,N/A,NA,NA,NA,some_college,NA,comp_class_warmup,English,male,NA,NA,In the main trials you will be asked to rephrase something a person said. The utterance will contain a word that is <i>relative</i> and your task is to figure out what it is relative to. <br /> <br /> For example: <br /><br />,1,1570714766370,1,NA,1,NA,NA,"buildings, scyscrapers, houses, constructions (choose one)",NA,comp_class_warmup
549,NA,tree,NA,NA,13,warmup/bonsai.jpg,redwood or sequoia (choose one),This is a,No,1,trees,barbara,NA,bonsai,NA,yes,Please label the pictures below.,NA,NA,31,NA,N/A,NA,warmup/sequoia.png,trees,some_college,NA,NA,English,male,NA,trees,NA,1,1570714766370,1,This is a,1,These are both,bonsai tree,NA,NA,warmup1
549,NA,redwood,NA,NA,13,warmup/bonsai.jpg,redwood or sequoia (choose one),This is a,No,1,trees,barbara,NA,bonsai,NA,yes,Please label the pictures below.,NA,NA,31,NA,N/A,NA,warmup/sequoia.png,trees,some_college,NA,NA,English,male,NA,trees,NA,1,1570714766370,2,This is a,1,These are both,bonsai,NA,NA,warmup1
549,NA,Swordfish,NA,NA,13,warmup/goldfish.png,swordfish,This is a,No,1,fish,barbara,NA,goldfish,NA,yes,Please label the pictures below.,NA,NA,31,NA,N/A,NA,warmup/swordfish.jpg,fish,some_college,NA,NA,English,male,NA,fish,NA,2,1570714766370,1,This is a,1,These are both,goldfish,NA,NA,warmup1
549,NA,puppy,NA,NA,13,warmup/doberman.png,chihuahua,This is a,No,1,dogs,barbara,NA,doberman,NA,yes,Please label the pictures below.,NA,NA,31,NA,N/A,NA,warmup/chihuahua.jpg,dogs,some_college,NA,NA,English,male,NA,dogs,NA,3,1570714766370,1,This is a,1,These are both,doberman,NA,NA,warmup1
549,NA,chihuahua,NA,NA,13,warmup/doberman.png,chihuahua,This is a,No,1,dogs,barbara,NA,doberman,NA,yes,Please label the pictures below.,NA,NA,31,NA,N/A,NA,warmup/chihuahua.jpg,dogs,some_college,NA,NA,English,male,NA,dogs,NA,3,1570714766370,2,This is a,1,These are both,doberman,NA,NA,warmup1
549,What do you think your friend meant?,NA,It is big relative to other,images/tree-parade-basic.png,13,NA,NA,NA,No,1,trees,barbara,NA,NA,0,yes,"You and your friend see another  redwood (not pictured), and your friend says: <br/><b>That's a big tree.</b>",prenominal,NA,31,trees,N/A,0,NA,NA,some_college,big,NA,English,male,NA,NA,You and your friend see the following:,1,1570714766370,NA,NA,1,NA,NA,NA,basic,custom_main_text1
549,What do you think your friend meant?,NA,It is small relative to other,images/dog-parade-basic.png,13,NA,NA,NA,No,1,dogs1,barbara,NA,NA,0,yes,"You and your friend see another  chihuahua (not pictured), and your friend says: <br/><b>That's a small one.</b>",prenominal,NA,31,dobermans,N/A,2,NA,NA,some_college,small,NA,English,male,NA,NA,You and your friend see the following:,2,1570714766370,NA,NA,1,NA,NA,NA,basic,custom_main_text1
549,Please rephrase your friend's comment.,NA,It is big relative to other,images/fish-parade-swordfish.png,13,NA,NA,NA,No,1,fish,barbara,NA,NA,1,yes,"You and your friend see another  swordfish (not pictured), and your friend says: <br/><b>That's a big one.</b>",prenominal,NA,31,swordfish,N/A,2,NA,NA,some_college,big,NA,English,male,NA,NA,You and your friend see the following:,3,1570714766370,NA,NA,1,NA,NA,NA,congr,custom_main_text1
549,NA,daisy,NA,NA,13,warmup/sunflower.png,dandelion,This is a,No,1,flowers,barbara,NA,sunflower,NA,yes,Please label the pictures below.,NA,NA,31,NA,N/A,NA,warmup/dandelion.jpg,flowers,some_college,NA,NA,English,male,NA,flowers,NA,1,1570714766370,1,This is a,1,These are both,sunflower,NA,NA,warmup2
549,NA,dandelion,NA,NA,13,warmup/sunflower.png,dandelion,This is a,No,1,flowers,barbara,NA,sunflower,NA,yes,Please label the pictures below.,NA,NA,31,NA,N/A,NA,warmup/dandelion.jpg,flowers,some_college,NA,NA,English,male,NA,flowers,NA,1,1570714766370,2,This is a,1,These are both,sunflower,NA,NA,warmup2
549,NA,pug,NA,NA,13,warmup/great-dane.jpg,pug,This is a,No,1,dogs,barbara,NA,great dane,NA,yes,Please label the pictures below.,NA,NA,31,NA,N/A,NA,warmup/pug.jpg,dogs,some_college,NA,NA,English,male,NA,dogs,NA,2,1570714766370,1,This is a,1,These are both,dog,NA,NA,warmup2
549,NA,pug,NA,NA,13,warmup/great-dane.jpg,pug,This is a,No,1,dogs,barbara,NA,great dane,NA,yes,Please label the pictures below.,NA,NA,31,NA,N/A,NA,warmup/pug.jpg,dogs,some_college,NA,NA,English,male,NA,dogs,NA,2,1570714766370,2,This is a,1,These are both,great dane,NA,NA,warmup2
549,NA,hummingbird,NA,NA,13,warmup/eagle.jpg,hummingbird,This is a,No,1,birds,barbara,NA,eagle,NA,yes,Please label the pictures below.,NA,NA,31,NA,N/A,NA,warmup/colibri.jpg,birds,some_college,NA,NA,English,male,NA,birds,NA,3,1570714766370,1,This is an,1,These are both,eagle,NA,NA,warmup2
549,What do you think your friend meant?,NA,It is small relative to other,images/bird-parade-hummingbird.png,13,NA,NA,NA,No,1,birds,barbara,NA,NA,1,yes,"You and your friend see another  hummingbird (not pictured), and your friend says: <br/><b>That's a small hummingbird.</b>",prenominal,NA,31,hummingbirds,N/A,1,NA,NA,some_college,small,NA,English,male,NA,NA,You and your friend see the following:,1,1570714766370,NA,NA,1,NA,NA,NA,congr,custom_main_text2
549,What do you think your friend meant?,NA,It is small relative to other,images/flower-parade-dandelion.png,13,NA,NA,NA,No,1,flowers,barbara,NA,NA,1,yes,"You and your friend see another  dandelion (not pictured), and your friend says: <br/><b>That's a small dandelion.</b>",prenominal,NA,31,dandelions,N/A,1,NA,NA,some_college,small,NA,English,male,NA,NA,You and your friend see the following:,2,1570714766370,NA,NA,1,NA,NA,NA,congr,custom_main_text2
549,What do you think your friend meant?,NA,It is big relative to other,images/dog-parade-basic2.png,13,NA,NA,NA,No,1,dogs2,barbara,NA,NA,0,yes,"You and your friend see another  great dane (not pictured), and your friend says: <br/><b>That's a big dog.</b>",prenominal,NA,31,great danes,N/A,0,NA,NA,some_college,big,NA,English,male,NA,NA,You and your friend see the following:,3,1570714766370,NA,NA,1,NA,NA,NA,basic,custom_main_text2
548,<i>What do you think Speaker A meant? </i>,NA,The Empire State Building is tall relative to other,NA,13,NA,NA,NA,"No glitches. Only issue (very very minor) was that I added punctuation (a period at the end) along with a correct answer as though I were writing an actual sentence and when I did, it said I needed to correct it. I intuitively thought to remove the period, but some might not. I don't remember seeing anywhere that said not to add the period, but it might be a good idea to note that clearly if you think people may get frustrated and wonder why their correct answer isn't ""taking.""",2,NA,Barbara,1,NA,NA,yes,NA,NA,"<b> Speaker A: ""The Empire State Building is tall.""</b>",48,buildings.,"Interesting study. I hadn't thought about it, but the way the question was worded (i.e. ""That's a big dog"" vs ""That's a big one"") affects how I view what the comment is relative too. Cool!",NA,NA,NA,graduated_high_school,NA,comp_class_warmup,English,female,NA,NA,In the main trials you will be asked to rephrase something a person said. The utterance will contain a word that is <i>relative</i> and your task is to figure out what it is relative to. <br /> <br /> For example: <br /><br />,1,1570714443508,1,NA,1,NA,NA,"buildings, scyscrapers, houses, constructions (choose one)",NA,comp_class_warmup
548,<i>What do you think Speaker A meant? </i>,NA,The Empire State Building is tall relative to other,NA,13,NA,NA,NA,"No glitches. Only issue (very very minor) was that I added punctuation (a period at the end) along with a correct answer as though I were writing an actual sentence and when I did, it said I needed to correct it. I intuitively thought to remove the period, but some might not. I don't remember seeing anywhere that said not to add the period, but it might be a good idea to note that clearly if you think people may get frustrated and wonder why their correct answer isn't ""taking.""",2,NA,Barbara,1,NA,NA,yes,NA,NA,"<b> Speaker A: ""The Empire State Building is tall.""</b>",48,buildings.,"Interesting study. I hadn't thought about it, but the way the question was worded (i.e. ""That's a big dog"" vs ""That's a big one"") affects how I view what the comment is relative too. Cool!",NA,NA,NA,graduated_high_school,NA,comp_class_warmup,English,female,NA,NA,In the main trials you will be asked to rephrase something a person said. The utterance will contain a word that is <i>relative</i> and your task is to figure out what it is relative to. <br /> <br /> For example: <br /><br />,1,1570714443508,2,NA,1,NA,NA,"buildings, scyscrapers, houses, constructions (choose one)",NA,comp_class_warmup
548,<i>What do you think Speaker A meant? </i>,NA,The Empire State Building is tall relative to other,NA,13,NA,NA,NA,"No glitches. Only issue (very very minor) was that I added punctuation (a period at the end) along with a correct answer as though I were writing an actual sentence and when I did, it said I needed to correct it. I intuitively thought to remove the period, but some might not. I don't remember seeing anywhere that said not to add the period, but it might be a good idea to note that clearly if you think people may get frustrated and wonder why their correct answer isn't ""taking.""",2,NA,Barbara,1,NA,NA,yes,NA,NA,"<b> Speaker A: ""The Empire State Building is tall.""</b>",48,buildings,"Interesting study. I hadn't thought about it, but the way the question was worded (i.e. ""That's a big dog"" vs ""That's a big one"") affects how I view what the comment is relative too. Cool!",NA,NA,NA,graduated_high_school,NA,comp_class_warmup,English,female,NA,NA,In the main trials you will be asked to rephrase something a person said. The utterance will contain a word that is <i>relative</i> and your task is to figure out what it is relative to. <br /> <br /> For example: <br /><br />,1,1570714443508,3,NA,1,NA,NA,"buildings, scyscrapers, houses, constructions (choose one)",NA,comp_class_warmup
548,NA,chihuahua,NA,NA,13,warmup/doberman.png,chihuahua,This is a,"No glitches. Only issue (very very minor) was that I added punctuation (a period at the end) along with a correct answer as though I were writing an actual sentence and when I did, it said I needed to correct it. I intuitively thought to remove the period, but some might not. I don't remember seeing anywhere that said not to add the period, but it might be a good idea to note that clearly if you think people may get frustrated and wonder why their correct answer isn't ""taking.""",2,dogs,Barbara,NA,doberman,NA,yes,Please label the pictures below.,NA,NA,48,NA,"Interesting study. I hadn't thought about it, but the way the question was worded (i.e. ""That's a big dog"" vs ""That's a big one"") affects how I view what the comment is relative too. Cool!",NA,warmup/chihuahua.jpg,dogs,graduated_high_school,NA,NA,English,female,NA,dogs,NA,1,1570714443508,1,This is a,1,These are both,doberman,NA,NA,warmup1
548,NA,hummingbird,NA,NA,13,warmup/eagle.jpg,hummingbird,This is a,"No glitches. Only issue (very very minor) was that I added punctuation (a period at the end) along with a correct answer as though I were writing an actual sentence and when I did, it said I needed to correct it. I intuitively thought to remove the period, but some might not. I don't remember seeing anywhere that said not to add the period, but it might be a good idea to note that clearly if you think people may get frustrated and wonder why their correct answer isn't ""taking.""",2,birds,Barbara,NA,eagle,NA,yes,Please label the pictures below.,NA,NA,48,NA,"Interesting study. I hadn't thought about it, but the way the question was worded (i.e. ""That's a big dog"" vs ""That's a big one"") affects how I view what the comment is relative too. Cool!",NA,warmup/colibri.jpg,birds,graduated_high_school,NA,NA,English,female,NA,birds,NA,2,1570714443508,1,This is an,1,These are both,eagle,NA,NA,warmup1
548,NA,dandelion,NA,NA,13,warmup/sunflower.png,dandelion,This is a,"No glitches. Only issue (very very minor) was that I added punctuation (a period at the end) along with a correct answer as though I were writing an actual sentence and when I did, it said I needed to correct it. I intuitively thought to remove the period, but some might not. I don't remember seeing anywhere that said not to add the period, but it might be a good idea to note that clearly if you think people may get frustrated and wonder why their correct answer isn't ""taking.""",2,flowers,Barbara,NA,sunflower,NA,yes,Please label the pictures below.,NA,NA,48,NA,"Interesting study. I hadn't thought about it, but the way the question was worded (i.e. ""That's a big dog"" vs ""That's a big one"") affects how I view what the comment is relative too. Cool!",NA,warmup/dandelion.jpg,flowers,graduated_high_school,NA,NA,English,female,NA,flowers,NA,3,1570714443508,1,This is a,1,These are both,sunflower,NA,NA,warmup1
548,What do you think your friend meant?,NA,It is small relative to other,images/bird-parade-hummingbird.png,13,NA,NA,NA,"No glitches. Only issue (very very minor) was that I added punctuation (a period at the end) along with a correct answer as though I were writing an actual sentence and when I did, it said I needed to correct it. I intuitively thought to remove the period, but some might not. I don't remember seeing anywhere that said not to add the period, but it might be a good idea to note that clearly if you think people may get frustrated and wonder why their correct answer isn't ""taking.""",2,birds,Barbara,NA,NA,1,yes,"You and your friend see another  hummingbird (not pictured), and your friend says: <br/><b>That's a small bird.</b>",prenominal,NA,48,birds,"Interesting study. I hadn't thought about it, but the way the question was worded (i.e. ""That's a big dog"" vs ""That's a big one"") affects how I view what the comment is relative too. Cool!",0,NA,NA,graduated_high_school,small,NA,English,female,NA,NA,You and your friend see the following:,1,1570714443508,NA,NA,1,NA,NA,NA,congr,custom_main_text1
548,What do you think your friend meant?,NA,It is big relative to other,images/flower-parade-basic.png,13,NA,NA,NA,"No glitches. Only issue (very very minor) was that I added punctuation (a period at the end) along with a correct answer as though I were writing an actual sentence and when I did, it said I needed to correct it. I intuitively thought to remove the period, but some might not. I don't remember seeing anywhere that said not to add the period, but it might be a good idea to note that clearly if you think people may get frustrated and wonder why their correct answer isn't ""taking.""",2,flowers,Barbara,NA,NA,0,yes,"You and your friend see another  sunflower (not pictured), and your friend says: <br/><b>That's a big one.</b>",prenominal,NA,48,sunflowers,"Interesting study. I hadn't thought about it, but the way the question was worded (i.e. ""That's a big dog"" vs ""That's a big one"") affects how I view what the comment is relative too. Cool!",2,NA,NA,graduated_high_school,big,NA,English,female,NA,NA,You and your friend see the following:,2,1570714443508,NA,NA,1,NA,NA,NA,basic,custom_main_text1
548,What do you think your friend meant?,NA,It is big relative to other,images/dog-parade-basic.png,13,NA,NA,NA,"No glitches. Only issue (very very minor) was that I added punctuation (a period at the end) along with a correct answer as though I were writing an actual sentence and when I did, it said I needed to correct it. I intuitively thought to remove the period, but some might not. I don't remember seeing anywhere that said not to add the period, but it might be a good idea to note that clearly if you think people may get frustrated and wonder why their correct answer isn't ""taking.""",2,dogs1,Barbara,NA,NA,0,yes,"You and your friend see another  doberman (not pictured), and your friend says: <br/><b>That's a big one.</b>",prenominal,NA,48,dobermans,"Interesting study. I hadn't thought about it, but the way the question was worded (i.e. ""That's a big dog"" vs ""That's a big one"") affects how I view what the comment is relative too. Cool!",2,NA,NA,graduated_high_school,big,NA,English,female,NA,NA,You and your friend see the following:,3,1570714443508,NA,NA,1,NA,NA,NA,basic,custom_main_text1
548,NA,swordfish,NA,NA,13,warmup/goldfish.png,swordfish,This is a,"No glitches. Only issue (very very minor) was that I added punctuation (a period at the end) along with a correct answer as though I were writing an actual sentence and when I did, it said I needed to correct it. I intuitively thought to remove the period, but some might not. I don't remember seeing anywhere that said not to add the period, but it might be a good idea to note that clearly if you think people may get frustrated and wonder why their correct answer isn't ""taking.""",2,fish,Barbara,NA,goldfish,NA,yes,Please label the pictures below.,NA,NA,48,NA,"Interesting study. I hadn't thought about it, but the way the question was worded (i.e. ""That's a big dog"" vs ""That's a big one"") affects how I view what the comment is relative too. Cool!",NA,warmup/swordfish.jpg,fish,graduated_high_school,NA,NA,English,female,NA,fish,NA,1,1570714443508,1,This is a,1,These are both,goldfish,NA,NA,warmup2
548,NA,boxer,NA,NA,13,warmup/great-dane.jpg,pug,This is a,"No glitches. Only issue (very very minor) was that I added punctuation (a period at the end) along with a correct answer as though I were writing an actual sentence and when I did, it said I needed to correct it. I intuitively thought to remove the period, but some might not. I don't remember seeing anywhere that said not to add the period, but it might be a good idea to note that clearly if you think people may get frustrated and wonder why their correct answer isn't ""taking.""",2,dogs,Barbara,NA,great dane,NA,yes,Please label the pictures below.,NA,NA,48,NA,"Interesting study. I hadn't thought about it, but the way the question was worded (i.e. ""That's a big dog"" vs ""That's a big one"") affects how I view what the comment is relative too. Cool!",NA,warmup/pug.jpg,dogs,graduated_high_school,NA,NA,English,female,NA,dogs,NA,2,1570714443508,1,This is a,1,These are both,great dane,NA,NA,warmup2
548,NA,pug,NA,NA,13,warmup/great-dane.jpg,pug,This is a,"No glitches. Only issue (very very minor) was that I added punctuation (a period at the end) along with a correct answer as though I were writing an actual sentence and when I did, it said I needed to correct it. I intuitively thought to remove the period, but some might not. I don't remember seeing anywhere that said not to add the period, but it might be a good idea to note that clearly if you think people may get frustrated and wonder why their correct answer isn't ""taking.""",2,dogs,Barbara,NA,great dane,NA,yes,Please label the pictures below.,NA,NA,48,NA,"Interesting study. I hadn't thought about it, but the way the question was worded (i.e. ""That's a big dog"" vs ""That's a big one"") affects how I view what the comment is relative too. Cool!",NA,warmup/pug.jpg,dogs,graduated_high_school,NA,NA,English,female,NA,dogs,NA,2,1570714443508,2,This is a,1,These are both,great dane,NA,NA,warmup2
548,NA,redwood,NA,NA,13,warmup/bonsai.jpg,redwood or sequoia (choose one),This is a,"No glitches. Only issue (very very minor) was that I added punctuation (a period at the end) along with a correct answer as though I were writing an actual sentence and when I did, it said I needed to correct it. I intuitively thought to remove the period, but some might not. I don't remember seeing anywhere that said not to add the period, but it might be a good idea to note that clearly if you think people may get frustrated and wonder why their correct answer isn't ""taking.""",2,trees,Barbara,NA,bonsai,NA,yes,Please label the pictures below.,NA,NA,48,NA,"Interesting study. I hadn't thought about it, but the way the question was worded (i.e. ""That's a big dog"" vs ""That's a big one"") affects how I view what the comment is relative too. Cool!",NA,warmup/sequoia.png,trees,graduated_high_school,NA,NA,English,female,NA,trees,NA,3,1570714443508,1,This is a,1,These are both,bonsai,NA,NA,warmup2
548,What do you think your friend meant?,NA,It is small relative to other,images/dog-parade-pug.png,13,NA,NA,NA,"No glitches. Only issue (very very minor) was that I added punctuation (a period at the end) along with a correct answer as though I were writing an actual sentence and when I did, it said I needed to correct it. I intuitively thought to remove the period, but some might not. I don't remember seeing anywhere that said not to add the period, but it might be a good idea to note that clearly if you think people may get frustrated and wonder why their correct answer isn't ""taking.""",2,dogs2,Barbara,NA,NA,1,yes,"You and your friend see another  pug (not pictured), and your friend says: <br/><b>That's a small dog.</b>",prenominal,NA,48,dogs,"Interesting study. I hadn't thought about it, but the way the question was worded (i.e. ""That's a big dog"" vs ""That's a big one"") affects how I view what the comment is relative too. Cool!",0,NA,NA,graduated_high_school,small,NA,English,female,NA,NA,You and your friend see the following:,1,1570714443508,NA,NA,1,NA,NA,NA,congr,custom_main_text2
548,Please rephrase your friend's comment.,NA,It is small relative to other,images/fish-parade-basic.png,13,NA,NA,NA,"No glitches. Only issue (very very minor) was that I added punctuation (a period at the end) along with a correct answer as though I were writing an actual sentence and when I did, it said I needed to correct it. I intuitively thought to remove the period, but some might not. I don't remember seeing anywhere that said not to add the period, but it might be a good idea to note that clearly if you think people may get frustrated and wonder why their correct answer isn't ""taking.""",2,fish,Barbara,NA,NA,0,yes,"You and your friend see another  goldfish (not pictured), and your friend says: <br/><b>That's a small goldfish.</b>",prenominal,NA,48,goldfish,"Interesting study. I hadn't thought about it, but the way the question was worded (i.e. ""That's a big dog"" vs ""That's a big one"") affects how I view what the comment is relative too. Cool!",1,NA,NA,graduated_high_school,small,NA,English,female,NA,NA,You and your friend see the following:,2,1570714443508,NA,NA,1,NA,NA,NA,basic,custom_main_text2
548,What do you think your friend meant?,NA,It is big relative to other,images/tree-parade-redwood.png,13,NA,NA,NA,"No glitches. Only issue (very very minor) was that I added punctuation (a period at the end) along with a correct answer as though I were writing an actual sentence and when I did, it said I needed to correct it. I intuitively thought to remove the period, but some might not. I don't remember seeing anywhere that said not to add the period, but it might be a good idea to note that clearly if you think people may get frustrated and wonder why their correct answer isn't ""taking.""",2,trees,Barbara,NA,NA,1,yes,"You and your friend see another  redwood (not pictured), and your friend says: <br/><b>That's a big redwood.</b>",prenominal,NA,48,redwoods,"Interesting study. I hadn't thought about it, but the way the question was worded (i.e. ""That's a big dog"" vs ""That's a big one"") affects how I view what the comment is relative too. Cool!",1,NA,NA,graduated_high_school,big,NA,English,female,NA,NA,You and your friend see the following:,3,1570714443508,NA,NA,1,NA,NA,NA,congr,custom_main_text2
547,<i>What do you think Speaker A meant? </i>,NA,The Empire State Building is tall relative to other,NA,13,NA,NA,NA,NA,1,NA,Mary,1,NA,NA,yes,NA,NA,"<b> Speaker A: ""The Empire State Building is tall.""</b>",33,buildings,NA,NA,NA,NA,graduated_high_school,NA,comp_class_warmup,english,male,NA,NA,In the main trials you will be asked to rephrase something a person said. The utterance will contain a word that is <i>relative</i> and your task is to figure out what it is relative to. <br /> <br /> For example: <br /><br />,1,1570713986458,1,NA,1.25,NA,NA,"buildings, scyscrapers, houses, constructions (choose one)",NA,comp_class_warmup
547,NA,chiwawa,NA,NA,13,warmup/doberman.png,chihuahua,This is a,NA,1,dogs,Mary,NA,doberman,NA,yes,Please label the pictures below.,NA,NA,33,NA,NA,NA,warmup/chihuahua.jpg,dogs,graduated_high_school,NA,NA,english,male,NA,dogs,NA,1,1570713986458,1,This is a,1.25,These are both,doverman,NA,NA,warmup1
547,NA,chiwawa,NA,NA,13,warmup/doberman.png,chihuahua,This is a,NA,1,dogs,Mary,NA,doberman,NA,yes,Please label the pictures below.,NA,NA,33,NA,NA,NA,warmup/chihuahua.jpg,dogs,graduated_high_school,NA,NA,english,male,NA,dogs,NA,1,1570713986458,2,This is a,1.25,These are both,doverman,NA,NA,warmup1
547,NA,chihuahua,NA,NA,13,warmup/doberman.png,chihuahua,This is a,NA,1,dogs,Mary,NA,doberman,NA,yes,Please label the pictures below.,NA,NA,33,NA,NA,NA,warmup/chihuahua.jpg,dogs,graduated_high_school,NA,NA,english,male,NA,dogs,NA,1,1570713986458,3,This is a,1.25,These are both,doberman,NA,NA,warmup1
547,NA,hummingbird,NA,NA,13,warmup/eagle.jpg,hummingbird,This is a,NA,1,birds,Mary,NA,eagle,NA,yes,Please label the pictures below.,NA,NA,33,NA,NA,NA,warmup/colibri.jpg,birds,graduated_high_school,NA,NA,english,male,NA,birds,NA,2,1570713986458,1,This is an,1.25,These are both,eagle,NA,NA,warmup1
547,NA,pug,NA,NA,13,warmup/great-dane.jpg,pug,This is a,NA,1,dogs,Mary,NA,great dane,NA,yes,Please label the pictures below.,NA,NA,33,NA,NA,NA,warmup/pug.jpg,dogs,graduated_high_school,NA,NA,english,male,NA,dogs,NA,3,1570713986458,1,This is a,1.25,These are both,hound,NA,NA,warmup1
547,NA,pug,NA,NA,13,warmup/great-dane.jpg,pug,This is a,NA,1,dogs,Mary,NA,great dane,NA,yes,Please label the pictures below.,NA,NA,33,NA,NA,NA,warmup/pug.jpg,dogs,graduated_high_school,NA,NA,english,male,NA,dogs,NA,3,1570713986458,2,This is a,1.25,These are both,great dane,NA,NA,warmup1
547,What do you think your friend meant?,NA,It is big relative to other,images/dog-parade-great-dane.png,13,NA,NA,NA,NA,1,dogs2,Mary,NA,NA,1,yes,"You and your friend see another  great dane (not pictured), and your friend says: <br/><b>That's a big one.</b>",prenominal,NA,33,dogs,NA,2,NA,NA,graduated_high_school,big,NA,english,male,NA,NA,You and your friend see the following:,1,1570713986458,NA,NA,1.25,NA,NA,NA,congr,custom_main_text1
547,What do you think your friend meant?,NA,It is big relative to other,images/dog-parade-basic.png,13,NA,NA,NA,NA,1,dogs1,Mary,NA,NA,0,yes,"You and your friend see another  doberman (not pictured), and your friend says: <br/><b>That's a big one.</b>",prenominal,NA,33,dog,NA,2,NA,NA,graduated_high_school,big,NA,english,male,NA,NA,You and your friend see the following:,2,1570713986458,NA,NA,1.25,NA,NA,NA,basic,custom_main_text1
547,What do you think your friend meant?,NA,It is big relative to other,images/bird-parade-eagle.png,13,NA,NA,NA,NA,1,birds,Mary,NA,NA,1,yes,"You and your friend see another  eagle (not pictured), and your friend says: <br/><b>That's a big eagle.</b>",prenominal,NA,33,birds,NA,1,NA,NA,graduated_high_school,big,NA,english,male,NA,NA,You and your friend see the following:,3,1570713986458,NA,NA,1.25,NA,NA,NA,congr,custom_main_text1
547,NA,tree,NA,NA,13,warmup/bonsai.jpg,redwood or sequoia (choose one),This is a,NA,1,trees,Mary,NA,bonsai,NA,yes,Please label the pictures below.,NA,NA,33,NA,NA,NA,warmup/sequoia.png,alive,graduated_high_school,NA,NA,english,male,NA,trees,NA,1,1570713986458,1,This is a,1.25,These are both,plant,NA,NA,warmup2
547,NA,tree,NA,NA,13,warmup/bonsai.jpg,redwood or sequoia (choose one),This is a,NA,1,trees,Mary,NA,bonsai,NA,yes,Please label the pictures below.,NA,NA,33,NA,NA,NA,warmup/sequoia.png,tree,graduated_high_school,NA,NA,english,male,NA,trees,NA,1,1570713986458,2,This is a,1.25,These are both,bonsai,NA,NA,warmup2
547,NA,tree,NA,NA,13,warmup/bonsai.jpg,redwood or sequoia (choose one),This is a,NA,1,trees,Mary,NA,bonsai,NA,yes,Please label the pictures below.,NA,NA,33,NA,NA,NA,warmup/sequoia.png,tree,graduated_high_school,NA,NA,english,male,NA,trees,NA,1,1570713986458,3,This is a,1.25,These are both,bonsai,NA,NA,warmup2
547,NA,tree,NA,NA,13,warmup/bonsai.jpg,redwood or sequoia (choose one),This is a,NA,1,trees,Mary,NA,bonsai,NA,yes,Please label the pictures below.,NA,NA,33,NA,NA,NA,warmup/sequoia.png,tree,graduated_high_school,NA,NA,english,male,NA,trees,NA,1,1570713986458,4,This is a,1.25,These are both,bonsai,NA,NA,warmup2
547,NA,tree,NA,NA,13,warmup/bonsai.jpg,redwood or sequoia (choose one),This is a,NA,1,trees,Mary,NA,bonsai,NA,yes,Please label the pictures below.,NA,NA,33,NA,NA,NA,warmup/sequoia.png,tree,graduated_high_school,NA,NA,english,male,NA,trees,NA,1,1570713986458,5,This is a,1.25,These are both,bonsai,NA,NA,warmup2
547,NA,redwood,NA,NA,13,warmup/bonsai.jpg,redwood or sequoia (choose one),This is a,NA,1,trees,Mary,NA,bonsai,NA,yes,Please label the pictures below.,NA,NA,33,NA,NA,NA,warmup/sequoia.png,tree,graduated_high_school,NA,NA,english,male,NA,trees,NA,1,1570713986458,6,This is a,1.25,These are both,bonsai,NA,NA,warmup2
547,NA,redwood,NA,NA,13,warmup/bonsai.jpg,redwood or sequoia (choose one),This is a,NA,1,trees,Mary,NA,bonsai,NA,yes,Please label the pictures below.,NA,NA,33,NA,NA,NA,warmup/sequoia.png,tree,graduated_high_school,NA,NA,english,male,NA,trees,NA,1,1570713986458,7,This is a,1.25,These are both,bonsai,NA,NA,warmup2
547,NA,redwood,NA,NA,13,warmup/bonsai.jpg,redwood or sequoia (choose one),This is a,NA,1,trees,Mary,NA,bonsai,NA,yes,Please label the pictures below.,NA,NA,33,NA,NA,NA,warmup/sequoia.png,tree,graduated_high_school,NA,NA,english,male,NA,trees,NA,1,1570713986458,8,This is a,1.25,These are both,bonsai,NA,NA,warmup2
547,NA,redwood,NA,NA,13,warmup/bonsai.jpg,redwood or sequoia (choose one),This is a,NA,1,trees,Mary,NA,bonsai,NA,yes,Please label the pictures below.,NA,NA,33,NA,NA,NA,warmup/sequoia.png,trees,graduated_high_school,NA,NA,english,male,NA,trees,NA,1,1570713986458,9,This is a,1.25,These are both,bonsai,NA,NA,warmup2
547,NA,marlin,NA,NA,13,warmup/goldfish.png,swordfish,This is a,NA,1,fish,Mary,NA,goldfish,NA,yes,Please label the pictures below.,NA,NA,33,NA,NA,NA,warmup/swordfish.jpg,fish,graduated_high_school,NA,NA,english,male,NA,fish,NA,2,1570713986458,1,This is a,1.25,These are both,goldfish,NA,NA,warmup2
547,NA,marlin,NA,NA,13,warmup/goldfish.png,swordfish,This is a,NA,1,fish,Mary,NA,goldfish,NA,yes,Please label the pictures below.,NA,NA,33,NA,NA,NA,warmup/swordfish.jpg,fish,graduated_high_school,NA,NA,english,male,NA,fish,NA,2,1570713986458,2,This is a,1.25,These are both,goldfish,NA,NA,warmup2
547,NA,marlin,NA,NA,13,warmup/goldfish.png,swordfish,This is a,NA,1,fish,Mary,NA,goldfish,NA,yes,Please label the pictures below.,NA,NA,33,NA,NA,NA,warmup/swordfish.jpg,fish,graduated_high_school,NA,NA,english,male,NA,fish,NA,2,1570713986458,3,This is a,1.25,These are both,goldfish,NA,NA,warmup2
547,NA,marlin,NA,NA,13,warmup/goldfish.png,swordfish,This is a,NA,1,fish,Mary,NA,goldfish,NA,yes,Please label the pictures below.,NA,NA,33,NA,NA,NA,warmup/swordfish.jpg,fish,graduated_high_school,NA,NA,english,male,NA,fish,NA,2,1570713986458,4,This is a,1.25,These are both,goldfish,NA,NA,warmup2
547,NA,swordfish,NA,NA,13,warmup/goldfish.png,swordfish,This is a,NA,1,fish,Mary,NA,goldfish,NA,yes,Please label the pictures below.,NA,NA,33,NA,NA,NA,warmup/swordfish.jpg,fish,graduated_high_school,NA,NA,english,male,NA,fish,NA,2,1570713986458,5,This is a,1.25,These are both,goldfish,NA,NA,warmup2
547,NA,flower,NA,NA,13,warmup/sunflower.png,dandelion,This is a,NA,1,flowers,Mary,NA,sunflower,NA,yes,Please label the pictures below.,NA,NA,33,NA,NA,NA,warmup/dandelion.jpg,plants,graduated_high_school,NA,NA,english,male,NA,flowers,NA,3,1570713986458,1,This is a,1.25,These are both,sunflower,NA,NA,warmup2
547,NA,dandelion,NA,NA,13,warmup/sunflower.png,dandelion,This is a,NA,1,flowers,Mary,NA,sunflower,NA,yes,Please label the pictures below.,NA,NA,33,NA,NA,NA,warmup/dandelion.jpg,flowers,graduated_high_school,NA,NA,english,male,NA,flowers,NA,3,1570713986458,2,This is a,1.25,These are both,sunflower,NA,NA,warmup2
547,What do you think your friend meant?,NA,It is small relative to other,images/flower-parade-basic.png,13,NA,NA,NA,NA,1,flowers,Mary,NA,NA,0,yes,"You and your friend see another  dandelion (not pictured), and your friend says: <br/><b>That's a small flower.</b>",prenominal,NA,33,flowers,NA,0,NA,NA,graduated_high_school,small,NA,english,male,NA,NA,You and your friend see the following:,1,1570713986458,NA,NA,1.25,NA,NA,NA,basic,custom_main_text2
547,Please rephrase your friend's comment.,NA,It is small relative to other,images/fish-parade-basic.png,13,NA,NA,NA,NA,1,fish,Mary,NA,NA,0,yes,"You and your friend see another  goldfish (not pictured), and your friend says: <br/><b>That's a small fish.</b>",prenominal,NA,33,fish,NA,0,NA,NA,graduated_high_school,small,NA,english,male,NA,NA,You and your friend see the following:,2,1570713986458,NA,NA,1.25,NA,NA,NA,basic,custom_main_text2
547,What do you think your friend meant?,NA,It is small relative to other,images/tree-parade-bonsai.png,13,NA,NA,NA,NA,1,trees,Mary,NA,NA,1,yes,"You and your friend see another  bonsai (not pictured), and your friend says: <br/><b>That's a small bonsai.</b>",prenominal,NA,33,plants,NA,1,NA,NA,graduated_high_school,small,NA,english,male,NA,NA,You and your friend see the following:,3,1570713986458,NA,NA,1.25,NA,NA,NA,congr,custom_main_text2
544,<i>What do you think Speaker A meant? </i>,NA,The Empire State Building is tall relative to other,NA,13,NA,NA,NA,None that i saw,1,NA,Sarah,1,NA,NA,yes,NA,NA,"<b> Speaker A: ""The Empire State Building is tall.""</b>",30,other buildings.,NA,NA,NA,NA,graduated_college,NA,comp_class_warmup,English,male,NA,NA,In the main trials you will be asked to rephrase something a person said. The utterance will contain a word that is <i>relative</i> and your task is to figure out what it is relative to. <br /> <br /> For example: <br /><br />,1,1570713854726,1,NA,1,NA,NA,"buildings, scyscrapers, houses, constructions (choose one)",NA,comp_class_warmup
544,<i>What do you think Speaker A meant? </i>,NA,The Empire State Building is tall relative to other,NA,13,NA,NA,NA,None that i saw,1,NA,Sarah,1,NA,NA,yes,NA,NA,"<b> Speaker A: ""The Empire State Building is tall.""</b>",30,other buildings.,NA,NA,NA,NA,graduated_college,NA,comp_class_warmup,English,male,NA,NA,In the main trials you will be asked to rephrase something a person said. The utterance will contain a word that is <i>relative</i> and your task is to figure out what it is relative to. <br /> <br /> For example: <br /><br />,1,1570713854726,2,NA,1,NA,NA,"buildings, scyscrapers, houses, constructions (choose one)",NA,comp_class_warmup
544,<i>What do you think Speaker A meant? </i>,NA,The Empire State Building is tall relative to other,NA,13,NA,NA,NA,None that i saw,1,NA,Sarah,1,NA,NA,yes,NA,NA,"<b> Speaker A: ""The Empire State Building is tall.""</b>",30,buildings.,NA,NA,NA,NA,graduated_college,NA,comp_class_warmup,English,male,NA,NA,In the main trials you will be asked to rephrase something a person said. The utterance will contain a word that is <i>relative</i> and your task is to figure out what it is relative to. <br /> <br /> For example: <br /><br />,1,1570713854726,3,NA,1,NA,NA,"buildings, scyscrapers, houses, constructions (choose one)",NA,comp_class_warmup
544,<i>What do you think Speaker A meant? </i>,NA,The Empire State Building is tall relative to other,NA,13,NA,NA,NA,None that i saw,1,NA,Sarah,1,NA,NA,yes,NA,NA,"<b> Speaker A: ""The Empire State Building is tall.""</b>",30,buildings.,NA,NA,NA,NA,graduated_college,NA,comp_class_warmup,English,male,NA,NA,In the main trials you will be asked to rephrase something a person said. The utterance will contain a word that is <i>relative</i> and your task is to figure out what it is relative to. <br /> <br /> For example: <br /><br />,1,1570713854726,4,NA,1,NA,NA,"buildings, scyscrapers, houses, constructions (choose one)",NA,comp_class_warmup
544,<i>What do you think Speaker A meant? </i>,NA,The Empire State Building is tall relative to other,NA,13,NA,NA,NA,None that i saw,1,NA,Sarah,1,NA,NA,yes,NA,NA,"<b> Speaker A: ""The Empire State Building is tall.""</b>",30,buildings.,NA,NA,NA,NA,graduated_college,NA,comp_class_warmup,English,male,NA,NA,In the main trials you will be asked to rephrase something a person said. The utterance will contain a word that is <i>relative</i> and your task is to figure out what it is relative to. <br /> <br /> For example: <br /><br />,1,1570713854726,5,NA,1,NA,NA,"buildings, scyscrapers, houses, constructions (choose one)",NA,comp_class_warmup
544,<i>What do you think Speaker A meant? </i>,NA,The Empire State Building is tall relative to other,NA,13,NA,NA,NA,None that i saw,1,NA,Sarah,1,NA,NA,yes,NA,NA,"<b> Speaker A: ""The Empire State Building is tall.""</b>",30,buildings,NA,NA,NA,NA,graduated_college,NA,comp_class_warmup,English,male,NA,NA,In the main trials you will be asked to rephrase something a person said. The utterance will contain a word that is <i>relative</i> and your task is to figure out what it is relative to. <br /> <br /> For example: <br /><br />,1,1570713854726,6,NA,1,NA,NA,"buildings, scyscrapers, houses, constructions (choose one)",NA,comp_class_warmup
544,NA,swordfish,NA,NA,13,warmup/goldfish.png,swordfish,This is a,None that i saw,1,fish,Sarah,NA,goldfish,NA,yes,Please label the pictures below.,NA,NA,30,NA,NA,NA,warmup/swordfish.jpg,fish,graduated_college,NA,NA,English,male,NA,fish,NA,1,1570713854726,1,This is a,1,These are both,goldfish,NA,NA,warmup1
544,NA,dandelion,NA,NA,13,warmup/sunflower.png,dandelion,This is a,None that i saw,1,flowers,Sarah,NA,sunflower,NA,yes,Please label the pictures below.,NA,NA,30,NA,NA,NA,warmup/dandelion.jpg,plants,graduated_college,NA,NA,English,male,NA,flowers,NA,2,1570713854726,1,This is a,1,These are both,sunflower,NA,NA,warmup1
544,NA,dandelion,NA,NA,13,warmup/sunflower.png,dandelion,This is a,None that i saw,1,flowers,Sarah,NA,sunflower,NA,yes,Please label the pictures below.,NA,NA,30,NA,NA,NA,warmup/dandelion.jpg,flowers,graduated_college,NA,NA,English,male,NA,flowers,NA,2,1570713854726,2,This is a,1,These are both,sunflower,NA,NA,warmup1
544,NA,bird,NA,NA,13,warmup/eagle.jpg,hummingbird,This is a,None that i saw,1,birds,Sarah,NA,eagle,NA,yes,Please label the pictures below.,NA,NA,30,NA,NA,NA,warmup/colibri.jpg,birds,graduated_college,NA,NA,English,male,NA,birds,NA,3,1570713854726,1,This is an,1,These are both,eagle,NA,NA,warmup1
544,NA,hummingbird,NA,NA,13,warmup/eagle.jpg,hummingbird,This is a,None that i saw,1,birds,Sarah,NA,eagle,NA,yes,Please label the pictures below.,NA,NA,30,NA,NA,NA,warmup/colibri.jpg,birds,graduated_college,NA,NA,English,male,NA,birds,NA,3,1570713854726,2,This is an,1,These are both,eagle,NA,NA,warmup1
544,Please rephrase your friend's comment.,NA,It is small relative to other,images/fish-parade-basic.png,13,NA,NA,NA,None that i saw,1,fish,Sarah,NA,NA,0,yes,"You and your friend see another  goldfish (not pictured), and your friend says: <br/><b>That's a small one.</b>",prenominal,NA,30,fish,NA,2,NA,NA,graduated_college,small,NA,English,male,NA,NA,You and your friend see the following:,1,1570713854726,NA,NA,1,NA,NA,NA,basic,custom_main_text1
544,What do you think your friend meant?,NA,It is big relative to other,images/flower-parade-basic.png,13,NA,NA,NA,None that i saw,1,flowers,Sarah,NA,NA,0,yes,"You and your friend see another  sunflower (not pictured), and your friend says: <br/><b>That's a big flower.</b>",prenominal,NA,30,flowers,NA,0,NA,NA,graduated_college,big,NA,English,male,NA,NA,You and your friend see the following:,2,1570713854726,NA,NA,1,NA,NA,NA,basic,custom_main_text1
544,What do you think your friend meant?,NA,It is big relative to other,images/bird-parade-basic.png,13,NA,NA,NA,None that i saw,1,birds,Sarah,NA,NA,0,yes,"You and your friend see another  eagle (not pictured), and your friend says: <br/><b>That's a big one.</b>",prenominal,NA,30,birds,NA,2,NA,NA,graduated_college,big,NA,English,male,NA,NA,You and your friend see the following:,3,1570713854726,NA,NA,1,NA,NA,NA,basic,custom_main_text1
544,NA,oak tree,NA,NA,13,warmup/bonsai.jpg,redwood or sequoia (choose one),This is a,None that i saw,1,trees,Sarah,NA,bonsai,NA,yes,Please label the pictures below.,NA,NA,30,NA,NA,NA,warmup/sequoia.png,trees,graduated_college,NA,NA,English,male,NA,trees,NA,1,1570713854726,1,This is a,1,These are both,bonzai tree,NA,NA,warmup2
544,NA,redwood,NA,NA,13,warmup/bonsai.jpg,redwood or sequoia (choose one),This is a,None that i saw,1,trees,Sarah,NA,bonsai,NA,yes,Please label the pictures below.,NA,NA,30,NA,NA,NA,warmup/sequoia.png,trees,graduated_college,NA,NA,English,male,NA,trees,NA,1,1570713854726,2,This is a,1,These are both,bonsai,NA,NA,warmup2
544,NA,pug,NA,NA,13,warmup/great-dane.jpg,pug,This is a,None that i saw,1,dogs,Sarah,NA,great dane,NA,yes,Please label the pictures below.,NA,NA,30,NA,NA,NA,warmup/pug.jpg,dogs,graduated_college,NA,NA,English,male,NA,dogs,NA,2,1570713854726,1,This is a,1,These are both,doberman,NA,NA,warmup2
544,NA,pug,NA,NA,13,warmup/great-dane.jpg,pug,This is a,None that i saw,1,dogs,Sarah,NA,great dane,NA,yes,Please label the pictures below.,NA,NA,30,NA,NA,NA,warmup/pug.jpg,dogs,graduated_college,NA,NA,English,male,NA,dogs,NA,2,1570713854726,2,This is a,1,These are both,great dane,NA,NA,warmup2
544,NA,chihuawa,NA,NA,13,warmup/doberman.png,chihuahua,This is a,None that i saw,1,dogs,Sarah,NA,doberman,NA,yes,Please label the pictures below.,NA,NA,30,NA,NA,NA,warmup/chihuahua.jpg,dogs,graduated_college,NA,NA,English,male,NA,dogs,NA,3,1570713854726,1,This is a,1,These are both,doberman,NA,NA,warmup2
544,NA,Chihuahua,NA,NA,13,warmup/doberman.png,chihuahua,This is a,None that i saw,1,dogs,Sarah,NA,doberman,NA,yes,Please label the pictures below.,NA,NA,30,NA,NA,NA,warmup/chihuahua.jpg,dogs,graduated_college,NA,NA,English,male,NA,dogs,NA,3,1570713854726,2,This is a,1,These are both,doberman,NA,NA,warmup2
544,What do you think your friend meant?,NA,It is small relative to other,images/tree-parade-bonsai.png,13,NA,NA,NA,None that i saw,1,trees,Sarah,NA,NA,1,yes,"You and your friend see another  bonsai (not pictured), and your friend says: <br/><b>That's a small tree.</b>",prenominal,NA,30,bonsais,NA,0,NA,NA,graduated_college,small,NA,English,male,NA,NA,You and your friend see the following:,1,1570713854726,NA,NA,1,NA,NA,NA,congr,custom_main_text2
544,What do you think your friend meant?,NA,It is small relative to other,images/dog-parade-pug.png,13,NA,NA,NA,None that i saw,1,dogs2,Sarah,NA,NA,1,yes,"You and your friend see another  pug (not pictured), and your friend says: <br/><b>That's a small pug.</b>",prenominal,NA,30,pugs,NA,1,NA,NA,graduated_college,small,NA,English,male,NA,NA,You and your friend see the following:,2,1570713854726,NA,NA,1,NA,NA,NA,congr,custom_main_text2
544,What do you think your friend meant?,NA,It is big relative to other,images/dog-parade-doberman.png,13,NA,NA,NA,None that i saw,1,dogs1,Sarah,NA,NA,1,yes,"You and your friend see another  doberman (not pictured), and your friend says: <br/><b>That's a big doberman.</b>",prenominal,NA,30,dobermans,NA,1,NA,NA,graduated_college,big,NA,English,male,NA,NA,You and your friend see the following:,3,1570713854726,NA,NA,1,NA,NA,NA,congr,custom_main_text2
543,<i>What do you think Speaker A meant? </i>,NA,The Empire State Building is tall relative to other,NA,13,NA,NA,NA,no,1,NA,barbara,1,NA,NA,yes,NA,NA,"<b> Speaker A: ""The Empire State Building is tall.""</b>",60,Buildings,NA,NA,NA,NA,graduated_high_school,NA,comp_class_warmup,English,male,NA,NA,In the main trials you will be asked to rephrase something a person said. The utterance will contain a word that is <i>relative</i> and your task is to figure out what it is relative to. <br /> <br /> For example: <br /><br />,1,1570713621103,1,NA,1,NA,NA,"buildings, scyscrapers, houses, constructions (choose one)",NA,comp_class_warmup
543,NA,marlin,NA,NA,13,warmup/goldfish.png,swordfish,This is a,no,1,fish,barbara,NA,goldfish,NA,yes,Please label the pictures below.,NA,NA,60,NA,NA,NA,warmup/swordfish.jpg,fish,graduated_high_school,NA,NA,English,male,NA,fish,NA,1,1570713621103,1,This is a,1,These are both,goldfish,NA,NA,warmup1
543,NA,Swordfish,NA,NA,13,warmup/goldfish.png,swordfish,This is a,no,1,fish,barbara,NA,goldfish,NA,yes,Please label the pictures below.,NA,NA,60,NA,NA,NA,warmup/swordfish.jpg,fish,graduated_high_school,NA,NA,English,male,NA,fish,NA,1,1570713621103,2,This is a,1,These are both,goldfish,NA,NA,warmup1
543,NA,Hun=mmingbird,NA,NA,13,warmup/eagle.jpg,hummingbird,This is a,no,1,birds,barbara,NA,eagle,NA,yes,Please label the pictures below.,NA,NA,60,NA,NA,NA,warmup/colibri.jpg,Birds,graduated_high_school,NA,NA,English,male,NA,birds,NA,2,1570713621103,1,This is an,1,These are both,Eagle,NA,NA,warmup1
543,NA,Hummingbird,NA,NA,13,warmup/eagle.jpg,hummingbird,This is a,no,1,birds,barbara,NA,eagle,NA,yes,Please label the pictures below.,NA,NA,60,NA,NA,NA,warmup/colibri.jpg,Birds,graduated_high_school,NA,NA,English,male,NA,birds,NA,2,1570713621103,2,This is an,1,These are both,Eagle,NA,NA,warmup1
543,NA,Dandelion,NA,NA,13,warmup/sunflower.png,dandelion,This is a,no,1,flowers,barbara,NA,sunflower,NA,yes,Please label the pictures below.,NA,NA,60,NA,NA,NA,warmup/dandelion.jpg,Flowers,graduated_high_school,NA,NA,English,male,NA,flowers,NA,3,1570713621103,1,This is a,1,These are both,Sunflower,NA,NA,warmup1
543,What do you think your friend meant?,NA,It is small relative to other,images/bird-parade-basic.png,13,NA,NA,NA,no,1,birds,barbara,NA,NA,0,yes,"You and your friend see another  hummingbird (not pictured), and your friend says: <br/><b>That's a small hummingbird.</b>",prenominal,NA,60,Hummingbirds,NA,1,NA,NA,graduated_high_school,small,NA,English,male,NA,NA,You and your friend see the following:,1,1570713621103,NA,NA,1,NA,NA,NA,basic,custom_main_text1
543,Please rephrase your friend's comment.,NA,It is small relative to other,images/fish-parade-basic.png,13,NA,NA,NA,no,1,fish,barbara,NA,NA,0,yes,"You and your friend see another  goldfish (not pictured), and your friend says: <br/><b>That's a small one.</b>",prenominal,NA,60,Fish,NA,2,NA,NA,graduated_high_school,small,NA,English,male,NA,NA,You and your friend see the following:,2,1570713621103,NA,NA,1,NA,NA,NA,basic,custom_main_text1
543,What do you think your friend meant?,NA,It is small relative to other,images/flower-parade-dandelion.png,13,NA,NA,NA,no,1,flowers,barbara,NA,NA,1,yes,"You and your friend see another  dandelion (not pictured), and your friend says: <br/><b>That's a small one.</b>",prenominal,NA,60,dandelions,NA,2,NA,NA,graduated_high_school,small,NA,English,male,NA,NA,You and your friend see the following:,3,1570713621103,NA,NA,1,NA,NA,NA,congr,custom_main_text1
543,NA,Pug,NA,NA,13,warmup/great-dane.jpg,pug,This is a,no,1,dogs,barbara,NA,great dane,NA,yes,Please label the pictures below.,NA,NA,60,NA,NA,NA,warmup/pug.jpg,Dogs,graduated_high_school,NA,NA,English,male,NA,dogs,NA,1,1570713621103,1,This is a,1,These are both,Labrador,NA,NA,warmup2
543,NA,Pug,NA,NA,13,warmup/great-dane.jpg,pug,This is a,no,1,dogs,barbara,NA,great dane,NA,yes,Please label the pictures below.,NA,NA,60,NA,NA,NA,warmup/pug.jpg,Dogs,graduated_high_school,NA,NA,English,male,NA,dogs,NA,1,1570713621103,2,This is a,1,These are both,Great Dane,NA,NA,warmup2
543,NA,Sequoia,NA,NA,13,warmup/bonsai.jpg,redwood or sequoia (choose one),This is a,no,1,trees,barbara,NA,bonsai,NA,yes,Please label the pictures below.,NA,NA,60,NA,NA,NA,warmup/sequoia.png,trees,graduated_high_school,NA,NA,English,male,NA,trees,NA,2,1570713621103,1,This is a,1,These are both,Bonsai,NA,NA,warmup2
543,NA,CHihuaa,NA,NA,13,warmup/doberman.png,chihuahua,This is a,no,1,dogs,barbara,NA,doberman,NA,yes,Please label the pictures below.,NA,NA,60,NA,NA,NA,warmup/chihuahua.jpg,dogs,graduated_high_school,NA,NA,English,male,NA,dogs,NA,3,1570713621103,1,This is a,1,These are both,Rotweiller,NA,NA,warmup2
543,NA,chihuahua,NA,NA,13,warmup/doberman.png,chihuahua,This is a,no,1,dogs,barbara,NA,doberman,NA,yes,Please label the pictures below.,NA,NA,60,NA,NA,NA,warmup/chihuahua.jpg,dogs,graduated_high_school,NA,NA,English,male,NA,dogs,NA,3,1570713621103,2,This is a,1,These are both,doberman,NA,NA,warmup2
543,What do you think your friend meant?,NA,It is big relative to other,images/tree-parade-redwood.png,13,NA,NA,NA,no,1,trees,barbara,NA,NA,1,yes,"You and your friend see another  redwood (not pictured), and your friend says: <br/><b>That's a big redwood.</b>",prenominal,NA,60,trees,NA,1,NA,NA,graduated_high_school,big,NA,English,male,NA,NA,You and your friend see the following:,1,1570713621103,NA,NA,1,NA,NA,NA,congr,custom_main_text2
543,What do you think your friend meant?,NA,It is big relative to other,images/dog-parade-basic.png,13,NA,NA,NA,no,1,dogs1,barbara,NA,NA,0,yes,"You and your friend see another  doberman (not pictured), and your friend says: <br/><b>That's a big dog.</b>",prenominal,NA,60,dogs,NA,0,NA,NA,graduated_high_school,big,NA,English,male,NA,NA,You and your friend see the following:,2,1570713621103,NA,NA,1,NA,NA,NA,basic,custom_main_text2
543,What do you think your friend meant?,NA,It is big relative to other,images/dog-parade-great-dane.png,13,NA,NA,NA,no,1,dogs2,barbara,NA,NA,1,yes,"You and your friend see another  great dane (not pictured), and your friend says: <br/><b>That's a big dog.</b>",prenominal,NA,60,dogs,NA,0,NA,NA,graduated_high_school,big,NA,English,male,NA,NA,You and your friend see the following:,3,1570713621103,NA,NA,1,NA,NA,NA,congr,custom_main_text2
542,<i>What do you think Speaker A meant? </i>,NA,The Empire State Building is tall relative to other,NA,13,NA,NA,NA,no,1,NA,Margaret,1,NA,NA,yes,NA,NA,"<b> Speaker A: ""The Empire State Building is tall.""</b>",29,other buildings,ty,NA,NA,NA,graduated_high_school,NA,comp_class_warmup,english,male,NA,NA,In the main trials you will be asked to rephrase something a person said. The utterance will contain a word that is <i>relative</i> and your task is to figure out what it is relative to. <br /> <br /> For example: <br /><br />,1,1570713764403,1,NA,10,NA,NA,"buildings, scyscrapers, houses, constructions (choose one)",NA,comp_class_warmup
542,<i>What do you think Speaker A meant? </i>,NA,The Empire State Building is tall relative to other,NA,13,NA,NA,NA,no,1,NA,Margaret,1,NA,NA,yes,NA,NA,"<b> Speaker A: ""The Empire State Building is tall.""</b>",29,buildings,ty,NA,NA,NA,graduated_high_school,NA,comp_class_warmup,english,male,NA,NA,In the main trials you will be asked to rephrase something a person said. The utterance will contain a word that is <i>relative</i> and your task is to figure out what it is relative to. <br /> <br /> For example: <br /><br />,1,1570713764403,2,NA,10,NA,NA,"buildings, scyscrapers, houses, constructions (choose one)",NA,comp_class_warmup
542,NA,tree,NA,NA,13,warmup/bonsai.jpg,redwood or sequoia (choose one),This is a,no,1,trees,Margaret,NA,bonsai,NA,yes,Please label the pictures below.,NA,NA,29,NA,ty,NA,warmup/sequoia.png,trees,graduated_high_school,NA,NA,english,male,NA,trees,NA,1,1570713764403,1,This is a,10,These are both,bonsai,NA,NA,warmup1
542,NA,redwood,NA,NA,13,warmup/bonsai.jpg,redwood or sequoia (choose one),This is a,no,1,trees,Margaret,NA,bonsai,NA,yes,Please label the pictures below.,NA,NA,29,NA,ty,NA,warmup/sequoia.png,trees,graduated_high_school,NA,NA,english,male,NA,trees,NA,1,1570713764403,2,This is a,10,These are both,bonsai,NA,NA,warmup1
542,NA,dog,NA,NA,13,warmup/doberman.png,chihuahua,This is a,no,1,dogs,Margaret,NA,doberman,NA,yes,Please label the pictures below.,NA,NA,29,NA,ty,NA,warmup/chihuahua.jpg,dog,graduated_high_school,NA,NA,english,male,NA,dogs,NA,2,1570713764403,1,This is a,10,These are both,dog,NA,NA,warmup1
542,NA,chihuahua,NA,NA,13,warmup/doberman.png,chihuahua,This is a,no,1,dogs,Margaret,NA,doberman,NA,yes,Please label the pictures below.,NA,NA,29,NA,ty,NA,warmup/chihuahua.jpg,dog,graduated_high_school,NA,NA,english,male,NA,dogs,NA,2,1570713764403,2,This is a,10,These are both,doberman,NA,NA,warmup1
542,NA,chihuahua,NA,NA,13,warmup/doberman.png,chihuahua,This is a,no,1,dogs,Margaret,NA,doberman,NA,yes,Please label the pictures below.,NA,NA,29,NA,ty,NA,warmup/chihuahua.jpg,dog,graduated_high_school,NA,NA,english,male,NA,dogs,NA,2,1570713764403,3,This is a,10,These are both,doberman,NA,NA,warmup1
542,NA,chihuahua,NA,NA,13,warmup/doberman.png,chihuahua,This is a,no,1,dogs,Margaret,NA,doberman,NA,yes,Please label the pictures below.,NA,NA,29,NA,ty,NA,warmup/chihuahua.jpg,dog,graduated_high_school,NA,NA,english,male,NA,dogs,NA,2,1570713764403,4,This is a,10,These are both,doberman,NA,NA,warmup1
542,NA,chihuahua,NA,NA,13,warmup/doberman.png,chihuahua,This is a,no,1,dogs,Margaret,NA,doberman,NA,yes,Please label the pictures below.,NA,NA,29,NA,ty,NA,warmup/chihuahua.jpg,dog,graduated_high_school,NA,NA,english,male,NA,dogs,NA,2,1570713764403,5,This is a,10,These are both,doberman,NA,NA,warmup1
542,NA,chihuahua,NA,NA,13,warmup/doberman.png,chihuahua,This is a,no,1,dogs,Margaret,NA,doberman,NA,yes,Please label the pictures below.,NA,NA,29,NA,ty,NA,warmup/chihuahua.jpg,dog,graduated_high_school,NA,NA,english,male,NA,dogs,NA,2,1570713764403,6,This is a,10,These are both,doberman,NA,NA,warmup1
542,NA,chihuahua,NA,NA,13,warmup/doberman.png,chihuahua,This is a,no,1,dogs,Margaret,NA,doberman,NA,yes,Please label the pictures below.,NA,NA,29,NA,ty,NA,warmup/chihuahua.jpg,dog,graduated_high_school,NA,NA,english,male,NA,dogs,NA,2,1570713764403,7,This is a,10,These are both,doberman,NA,NA,warmup1
542,NA,chihuahua,NA,NA,13,warmup/doberman.png,chihuahua,This is a,no,1,dogs,Margaret,NA,doberman,NA,yes,Please label the pictures below.,NA,NA,29,NA,ty,NA,warmup/chihuahua.jpg,dogs,graduated_high_school,NA,NA,english,male,NA,dogs,NA,2,1570713764403,8,This is a,10,These are both,doberman,NA,NA,warmup1
542,NA,hummingbird,NA,NA,13,warmup/eagle.jpg,hummingbird,This is a,no,1,birds,Margaret,NA,eagle,NA,yes,Please label the pictures below.,NA,NA,29,NA,ty,NA,warmup/colibri.jpg,birds,graduated_high_school,NA,NA,english,male,NA,birds,NA,3,1570713764403,1,This is an,10,These are both,eagle,NA,NA,warmup1
542,What do you think your friend meant?,NA,It is small relative to other,images/dog-parade-chihuahua.png,13,NA,NA,NA,no,1,dogs1,Margaret,NA,NA,1,yes,"You and your friend see another  chihuahua (not pictured), and your friend says: <br/><b>That's a small dog.</b>",prenominal,NA,29,dogs,ty,0,NA,NA,graduated_high_school,small,NA,english,male,NA,NA,You and your friend see the following:,1,1570713764403,NA,NA,10,NA,NA,NA,congr,custom_main_text1
542,What do you think your friend meant?,NA,It is small relative to other,images/tree-parade-basic.png,13,NA,NA,NA,no,1,trees,Margaret,NA,NA,0,yes,"You and your friend see another  bonsai (not pictured), and your friend says: <br/><b>That's a small bonsai.</b>",prenominal,NA,29,trees,ty,1,NA,NA,graduated_high_school,small,NA,english,male,NA,NA,You and your friend see the following:,2,1570713764403,NA,NA,10,NA,NA,NA,basic,custom_main_text1
542,What do you think your friend meant?,NA,It is big relative to other,images/bird-parade-eagle.png,13,NA,NA,NA,no,1,birds,Margaret,NA,NA,1,yes,"You and your friend see another  eagle (not pictured), and your friend says: <br/><b>That's a big eagle.</b>",prenominal,NA,29,eagles,ty,1,NA,NA,graduated_high_school,big,NA,english,male,NA,NA,You and your friend see the following:,3,1570713764403,NA,NA,10,NA,NA,NA,congr,custom_main_text1
542,NA,bulldog,NA,NA,13,warmup/great-dane.jpg,pug,This is a,no,1,dogs,Margaret,NA,great dane,NA,yes,Please label the pictures below.,NA,NA,29,NA,ty,NA,warmup/pug.jpg,dogs,graduated_high_school,NA,NA,english,male,NA,dogs,NA,1,1570713764403,1,This is a,10,These are both,bloodhound,NA,NA,warmup2
542,NA,pug,NA,NA,13,warmup/great-dane.jpg,pug,This is a,no,1,dogs,Margaret,NA,great dane,NA,yes,Please label the pictures below.,NA,NA,29,NA,ty,NA,warmup/pug.jpg,dogs,graduated_high_school,NA,NA,english,male,NA,dogs,NA,1,1570713764403,2,This is a,10,These are both,great dane,NA,NA,warmup2
542,NA,weed,NA,NA,13,warmup/sunflower.png,dandelion,This is a,no,1,flowers,Margaret,NA,sunflower,NA,yes,Please label the pictures below.,NA,NA,29,NA,ty,NA,warmup/dandelion.jpg,flowers,graduated_high_school,NA,NA,english,male,NA,flowers,NA,2,1570713764403,1,This is a,10,These are both,sunflower,NA,NA,warmup2
542,NA,dandelion,NA,NA,13,warmup/sunflower.png,dandelion,This is a,no,1,flowers,Margaret,NA,sunflower,NA,yes,Please label the pictures below.,NA,NA,29,NA,ty,NA,warmup/dandelion.jpg,flowers,graduated_high_school,NA,NA,english,male,NA,flowers,NA,2,1570713764403,2,This is a,10,These are both,sunflower,NA,NA,warmup2
542,NA,swordfish,NA,NA,13,warmup/goldfish.png,swordfish,This is a,no,1,fish,Margaret,NA,goldfish,NA,yes,Please label the pictures below.,NA,NA,29,NA,ty,NA,warmup/swordfish.jpg,fish,graduated_high_school,NA,NA,english,male,NA,fish,NA,3,1570713764403,1,This is a,10,These are both,goldfish,NA,NA,warmup2
542,Please rephrase your friend's comment.,NA,It is big relative to other,images/fish-parade-swordfish.png,13,NA,NA,NA,no,1,fish,Margaret,NA,NA,1,yes,"You and your friend see another  swordfish (not pictured), and your friend says: <br/><b>That's a big fish.</b>",prenominal,NA,29,fish,ty,0,NA,NA,graduated_high_school,big,NA,english,male,NA,NA,You and your friend see the following:,1,1570713764403,NA,NA,10,NA,NA,NA,congr,custom_main_text2
542,What do you think your friend meant?,NA,It is big relative to other,images/flower-parade-basic.png,13,NA,NA,NA,no,1,flowers,Margaret,NA,NA,0,yes,"You and your friend see another  sunflower (not pictured), and your friend says: <br/><b>That's a big one.</b>",prenominal,NA,29,flowers,ty,2,NA,NA,graduated_high_school,big,NA,english,male,NA,NA,You and your friend see the following:,2,1570713764403,NA,NA,10,NA,NA,NA,basic,custom_main_text2
542,What do you think your friend meant?,NA,It is small relative to other,images/dog-parade-basic2.png,13,NA,NA,NA,no,1,dogs2,Margaret,NA,NA,0,yes,"You and your friend see another  pug (not pictured), and your friend says: <br/><b>That's a small one.</b>",prenominal,NA,29,dogs,ty,2,NA,NA,graduated_high_school,small,NA,english,male,NA,NA,You and your friend see the following:,3,1570713764403,NA,NA,10,NA,NA,NA,basic,custom_main_text2
541,<i>What do you think Speaker A meant? </i>,NA,The Empire State Building is tall relative to other,NA,13,NA,NA,NA,"your chihuahua pic most definitely looks like a minpin to me, especially when it's pictured next to the doberman :).",2,NA,jessica,1,NA,NA,yes,NA,NA,"<b> Speaker A: ""The Empire State Building is tall.""</b>",42,buildings,NA,NA,NA,NA,graduated_college,NA,comp_class_warmup,english,male,NA,NA,In the main trials you will be asked to rephrase something a person said. The utterance will contain a word that is <i>relative</i> and your task is to figure out what it is relative to. <br /> <br /> For example: <br /><br />,1,1570713121016,1,NA,1.5,NA,NA,"buildings, scyscrapers, houses, constructions (choose one)",NA,comp_class_warmup
541,NA,redwood,NA,NA,13,warmup/bonsai.jpg,redwood or sequoia (choose one),This is a,"your chihuahua pic most definitely looks like a minpin to me, especially when it's pictured next to the doberman :).",2,trees,jessica,NA,bonsai,NA,yes,Please label the pictures below.,NA,NA,42,NA,NA,NA,warmup/sequoia.png,trees,graduated_college,NA,NA,english,male,NA,trees,NA,1,1570713121016,1,This is a,1.5,These are both,bonsai,NA,NA,warmup1
541,NA,minpin,NA,NA,13,warmup/doberman.png,chihuahua,This is a,"your chihuahua pic most definitely looks like a minpin to me, especially when it's pictured next to the doberman :).",2,dogs,jessica,NA,doberman,NA,yes,Please label the pictures below.,NA,NA,42,NA,NA,NA,warmup/chihuahua.jpg,dogs,graduated_college,NA,NA,english,male,NA,dogs,NA,2,1570713121016,1,This is a,1.5,These are both,doberman,NA,NA,warmup1
541,NA,chihuahua,NA,NA,13,warmup/doberman.png,chihuahua,This is a,"your chihuahua pic most definitely looks like a minpin to me, especially when it's pictured next to the doberman :).",2,dogs,jessica,NA,doberman,NA,yes,Please label the pictures below.,NA,NA,42,NA,NA,NA,warmup/chihuahua.jpg,dogs,graduated_college,NA,NA,english,male,NA,dogs,NA,2,1570713121016,2,This is a,1.5,These are both,doberman,NA,NA,warmup1
541,NA,swordfish,NA,NA,13,warmup/goldfish.png,swordfish,This is a,"your chihuahua pic most definitely looks like a minpin to me, especially when it's pictured next to the doberman :).",2,fish,jessica,NA,goldfish,NA,yes,Please label the pictures below.,NA,NA,42,NA,NA,NA,warmup/swordfish.jpg,fish,graduated_college,NA,NA,english,male,NA,fish,NA,3,1570713121016,1,This is a,1.5,These are both,goldfish,NA,NA,warmup1
541,Please rephrase your friend's comment.,NA,It is big relative to other,images/fish-parade-swordfish.png,13,NA,NA,NA,"your chihuahua pic most definitely looks like a minpin to me, especially when it's pictured next to the doberman :).",2,fish,jessica,NA,NA,1,yes,"You and your friend see another  swordfish (not pictured), and your friend says: <br/><b>That's a big swordfish.</b>",prenominal,NA,42,swordfish,NA,1,NA,NA,graduated_college,big,NA,english,male,NA,NA,You and your friend see the following:,1,1570713121016,NA,NA,1.5,NA,NA,NA,congr,custom_main_text1
541,What do you think your friend meant?,NA,It is small relative to other,images/tree-parade-bonsai.png,13,NA,NA,NA,"your chihuahua pic most definitely looks like a minpin to me, especially when it's pictured next to the doberman :).",2,trees,jessica,NA,NA,1,yes,"You and your friend see another  bonsai (not pictured), and your friend says: <br/><b>That's a small one.</b>",prenominal,NA,42,bonsai,NA,2,NA,NA,graduated_college,small,NA,english,male,NA,NA,You and your friend see the following:,2,1570713121016,NA,NA,1.5,NA,NA,NA,congr,custom_main_text1
541,What do you think your friend meant?,NA,It is small relative to other,images/dog-parade-basic.png,13,NA,NA,NA,"your chihuahua pic most definitely looks like a minpin to me, especially when it's pictured next to the doberman :).",2,dogs1,jessica,NA,NA,0,yes,"You and your friend see another  chihuahua (not pictured), and your friend says: <br/><b>That's a small chihuahua.</b>",prenominal,NA,42,chihuahuas,NA,1,NA,NA,graduated_college,small,NA,english,male,NA,NA,You and your friend see the following:,3,1570713121016,NA,NA,1.5,NA,NA,NA,basic,custom_main_text1
541,NA,pug,NA,NA,13,warmup/great-dane.jpg,pug,This is a,"your chihuahua pic most definitely looks like a minpin to me, especially when it's pictured next to the doberman :).",2,dogs,jessica,NA,great dane,NA,yes,Please label the pictures below.,NA,NA,42,NA,NA,NA,warmup/pug.jpg,dogs,graduated_college,NA,NA,english,male,NA,dogs,NA,1,1570713121016,1,This is a,1.5,These are both,great dane,NA,NA,warmup2
541,NA,dandelion,NA,NA,13,warmup/sunflower.png,dandelion,This is a,"your chihuahua pic most definitely looks like a minpin to me, especially when it's pictured next to the doberman :).",2,flowers,jessica,NA,sunflower,NA,yes,Please label the pictures below.,NA,NA,42,NA,NA,NA,warmup/dandelion.jpg,flowers,graduated_college,NA,NA,english,male,NA,flowers,NA,2,1570713121016,1,This is a,1.5,These are both,sunflower,NA,NA,warmup2
541,NA,hummingbird,NA,NA,13,warmup/eagle.jpg,hummingbird,This is a,"your chihuahua pic most definitely looks like a minpin to me, especially when it's pictured next to the doberman :).",2,birds,jessica,NA,eagle,NA,yes,Please label the pictures below.,NA,NA,42,NA,NA,NA,warmup/colibri.jpg,birds,graduated_college,NA,NA,english,male,NA,birds,NA,3,1570713121016,1,This is an,1.5,These are both,eagle,NA,NA,warmup2
541,What do you think your friend meant?,NA,It is big relative to other,images/bird-parade-basic.png,13,NA,NA,NA,"your chihuahua pic most definitely looks like a minpin to me, especially when it's pictured next to the doberman :).",2,birds,jessica,NA,NA,0,yes,"You and your friend see another  eagle (not pictured), and your friend says: <br/><b>That's a big one.</b>",prenominal,NA,42,birds,NA,2,NA,NA,graduated_college,big,NA,english,male,NA,NA,You and your friend see the following:,1,1570713121016,NA,NA,1.5,NA,NA,NA,basic,custom_main_text2
541,What do you think your friend meant?,NA,It is small relative to other,images/dog-parade-basic2.png,13,NA,NA,NA,"your chihuahua pic most definitely looks like a minpin to me, especially when it's pictured next to the doberman :).",2,dogs2,jessica,NA,NA,0,yes,"You and your friend see another  pug (not pictured), and your friend says: <br/><b>That's a small dog.</b>",prenominal,NA,42,dogs,NA,0,NA,NA,graduated_college,small,NA,english,male,NA,NA,You and your friend see the following:,2,1570713121016,NA,NA,1.5,NA,NA,NA,basic,custom_main_text2
541,What do you think your friend meant?,NA,It is big relative to other,images/flower-parade-sunflower.png,13,NA,NA,NA,"your chihuahua pic most definitely looks like a minpin to me, especially when it's pictured next to the doberman :).",2,flowers,jessica,NA,NA,1,yes,"You and your friend see another  sunflower (not pictured), and your friend says: <br/><b>That's a big flower.</b>",prenominal,NA,42,flowers,NA,0,NA,NA,graduated_college,big,NA,english,male,NA,NA,You and your friend see the following:,3,1570713121016,NA,NA,1.5,NA,NA,NA,congr,custom_main_text2
537,<i>What do you think Speaker A meant? </i>,NA,The Empire State Building is tall relative to other,NA,13,NA,NA,NA,nope,1,NA,barbara,1,NA,NA,yes,NA,NA,"<b> Speaker A: ""The Empire State Building is tall.""</b>",31,buildings,NA,NA,NA,NA,graduated_college,NA,comp_class_warmup,english,male,NA,NA,In the main trials you will be asked to rephrase something a person said. The utterance will contain a word that is <i>relative</i> and your task is to figure out what it is relative to. <br /> <br /> For example: <br /><br />,1,1570713316605,1,NA,1,NA,NA,"buildings, scyscrapers, houses, constructions (choose one)",NA,comp_class_warmup
537,NA,marlin,NA,NA,13,warmup/goldfish.png,swordfish,This is a,nope,1,fish,barbara,NA,goldfish,NA,yes,Please label the pictures below.,NA,NA,31,NA,NA,NA,warmup/swordfish.jpg,fish,graduated_college,NA,NA,english,male,NA,fish,NA,1,1570713316605,1,This is a,1,These are both,goldfish,NA,NA,warmup1
537,NA,swordfish,NA,NA,13,warmup/goldfish.png,swordfish,This is a,nope,1,fish,barbara,NA,goldfish,NA,yes,Please label the pictures below.,NA,NA,31,NA,NA,NA,warmup/swordfish.jpg,fish,graduated_college,NA,NA,english,male,NA,fish,NA,1,1570713316605,2,This is a,1,These are both,goldfish,NA,NA,warmup1
537,NA,weed,NA,NA,13,warmup/sunflower.png,dandelion,This is a,nope,1,flowers,barbara,NA,sunflower,NA,yes,Please label the pictures below.,NA,NA,31,NA,NA,NA,warmup/dandelion.jpg,plants,graduated_college,NA,NA,english,male,NA,flowers,NA,2,1570713316605,1,This is a,1,These are both,sunflower,NA,NA,warmup1
537,NA,dandelion,NA,NA,13,warmup/sunflower.png,dandelion,This is a,nope,1,flowers,barbara,NA,sunflower,NA,yes,Please label the pictures below.,NA,NA,31,NA,NA,NA,warmup/dandelion.jpg,flowers,graduated_college,NA,NA,english,male,NA,flowers,NA,2,1570713316605,2,This is a,1,These are both,sunflower,NA,NA,warmup1
537,NA,chihuahua,NA,NA,13,warmup/doberman.png,chihuahua,This is a,nope,1,dogs,barbara,NA,doberman,NA,yes,Please label the pictures below.,NA,NA,31,NA,NA,NA,warmup/chihuahua.jpg,dogs,graduated_college,NA,NA,english,male,NA,dogs,NA,3,1570713316605,1,This is a,1,These are both,german shepherd,NA,NA,warmup1
537,NA,chihuahua,NA,NA,13,warmup/doberman.png,chihuahua,This is a,nope,1,dogs,barbara,NA,doberman,NA,yes,Please label the pictures below.,NA,NA,31,NA,NA,NA,warmup/chihuahua.jpg,dogs,graduated_college,NA,NA,english,male,NA,dogs,NA,3,1570713316605,2,This is a,1,These are both,doberman,NA,NA,warmup1
537,What do you think your friend meant?,NA,It is small relative to other,images/flower-parade-basic.png,13,NA,NA,NA,nope,1,flowers,barbara,NA,NA,0,yes,"You and your friend see another  dandelion (not pictured), and your friend says: <br/><b>That's a small flower.</b>",prenominal,NA,31,flowers,NA,0,NA,NA,graduated_college,small,NA,english,male,NA,NA,You and your friend see the following:,1,1570713316605,NA,NA,1,NA,NA,NA,basic,custom_main_text1
537,Please rephrase your friend's comment.,NA,It is big relative to other,images/fish-parade-swordfish.png,13,NA,NA,NA,nope,1,fish,barbara,NA,NA,1,yes,"You and your friend see another  swordfish (not pictured), and your friend says: <br/><b>That's a big swordfish.</b>",prenominal,NA,31,swordfish,NA,1,NA,NA,graduated_college,big,NA,english,male,NA,NA,You and your friend see the following:,2,1570713316605,NA,NA,1,NA,NA,NA,congr,custom_main_text1
537,What do you think your friend meant?,NA,It is small relative to other,images/dog-parade-chihuahua.png,13,NA,NA,NA,nope,1,dogs1,barbara,NA,NA,1,yes,"You and your friend see another  chihuahua (not pictured), and your friend says: <br/><b>That's a small chihuahua.</b>",prenominal,NA,31,chihuahuas,NA,1,NA,NA,graduated_college,small,NA,english,male,NA,NA,You and your friend see the following:,3,1570713316605,NA,NA,1,NA,NA,NA,congr,custom_main_text1
537,NA,pug,NA,NA,13,warmup/great-dane.jpg,pug,This is a,nope,1,dogs,barbara,NA,great dane,NA,yes,Please label the pictures below.,NA,NA,31,NA,NA,NA,warmup/pug.jpg,dogs,graduated_college,NA,NA,english,male,NA,dogs,NA,1,1570713316605,1,This is a,1,These are both,greyhound,NA,NA,warmup2
537,NA,pug,NA,NA,13,warmup/great-dane.jpg,pug,This is a,nope,1,dogs,barbara,NA,great dane,NA,yes,Please label the pictures below.,NA,NA,31,NA,NA,NA,warmup/pug.jpg,dogs,graduated_college,NA,NA,english,male,NA,dogs,NA,1,1570713316605,2,This is a,1,These are both,great dane,NA,NA,warmup2
537,NA,hummingbird,NA,NA,13,warmup/eagle.jpg,hummingbird,This is a,nope,1,birds,barbara,NA,eagle,NA,yes,Please label the pictures below.,NA,NA,31,NA,NA,NA,warmup/colibri.jpg,birds,graduated_college,NA,NA,english,male,NA,birds,NA,2,1570713316605,1,This is an,1,These are both,eagle,NA,NA,warmup2
537,NA,sequoia,NA,NA,13,warmup/bonsai.jpg,redwood or sequoia (choose one),This is a,nope,1,trees,barbara,NA,bonsai,NA,yes,Please label the pictures below.,NA,NA,31,NA,NA,NA,warmup/sequoia.png,trees,graduated_college,NA,NA,english,male,NA,trees,NA,3,1570713316605,1,This is a,1,These are both,bonsai,NA,NA,warmup2
537,What do you think your friend meant?,NA,It is small relative to other,images/tree-parade-bonsai.png,13,NA,NA,NA,nope,1,trees,barbara,NA,NA,1,yes,"You and your friend see another  bonsai (not pictured), and your friend says: <br/><b>That's a small tree.</b>",prenominal,NA,31,bonsais,NA,0,NA,NA,graduated_college,small,NA,english,male,NA,NA,You and your friend see the following:,1,1570713316605,NA,NA,1,NA,NA,NA,congr,custom_main_text2
537,What do you think your friend meant?,NA,It is big relative to other,images/dog-parade-basic2.png,13,NA,NA,NA,nope,1,dogs2,barbara,NA,NA,0,yes,"You and your friend see another  great dane (not pictured), and your friend says: <br/><b>That's a big one.</b>",prenominal,NA,31,dogs,NA,2,NA,NA,graduated_college,big,NA,english,male,NA,NA,You and your friend see the following:,2,1570713316605,NA,NA,1,NA,NA,NA,basic,custom_main_text2
537,What do you think your friend meant?,NA,It is big relative to other,images/bird-parade-basic.png,13,NA,NA,NA,nope,1,birds,barbara,NA,NA,0,yes,"You and your friend see another  eagle (not pictured), and your friend says: <br/><b>That's a big one.</b>",prenominal,NA,31,birds,NA,2,NA,NA,graduated_college,big,NA,english,male,NA,NA,You and your friend see the following:,3,1570713316605,NA,NA,1,NA,NA,NA,basic,custom_main_text2
536,<i>What do you think Speaker A meant? </i>,NA,The Empire State Building is tall relative to other,NA,13,NA,NA,NA,NA,2,NA,elizabeth,1,NA,NA,yes,NA,NA,"<b> Speaker A: ""The Empire State Building is tall.""</b>",29,buildings,NA,NA,NA,NA,graduated_college,NA,comp_class_warmup,English,male,NA,NA,In the main trials you will be asked to rephrase something a person said. The utterance will contain a word that is <i>relative</i> and your task is to figure out what it is relative to. <br /> <br /> For example: <br /><br />,1,1570713135038,1,NA,0.9,NA,NA,"buildings, scyscrapers, houses, constructions (choose one)",NA,comp_class_warmup
536,NA,small dog,NA,NA,13,warmup/doberman.png,chihuahua,This is a,NA,2,dogs,elizabeth,NA,doberman,NA,yes,Please label the pictures below.,NA,NA,29,NA,NA,NA,warmup/chihuahua.jpg,dogs,graduated_college,NA,NA,English,male,NA,dogs,NA,1,1570713135038,1,This is a,0.9,These are both,big dog,NA,NA,warmup1
536,NA,chihuahua,NA,NA,13,warmup/doberman.png,chihuahua,This is a,NA,2,dogs,elizabeth,NA,doberman,NA,yes,Please label the pictures below.,NA,NA,29,NA,NA,NA,warmup/chihuahua.jpg,dogs,graduated_college,NA,NA,English,male,NA,dogs,NA,1,1570713135038,2,This is a,0.9,These are both,doberman,NA,NA,warmup1
536,NA,sequoia,NA,NA,13,warmup/bonsai.jpg,redwood or sequoia (choose one),This is a,NA,2,trees,elizabeth,NA,bonsai,NA,yes,Please label the pictures below.,NA,NA,29,NA,NA,NA,warmup/sequoia.png,trees,graduated_college,NA,NA,English,male,NA,trees,NA,2,1570713135038,1,This is a,0.9,These are both,bonzai,NA,NA,warmup1
536,NA,sequoia,NA,NA,13,warmup/bonsai.jpg,redwood or sequoia (choose one),This is a,NA,2,trees,elizabeth,NA,bonsai,NA,yes,Please label the pictures below.,NA,NA,29,NA,NA,NA,warmup/sequoia.png,trees,graduated_college,NA,NA,English,male,NA,trees,NA,2,1570713135038,2,This is a,0.9,These are both,bonsai,NA,NA,warmup1
536,NA,pug,NA,NA,13,warmup/great-dane.jpg,pug,This is a,NA,2,dogs,elizabeth,NA,great dane,NA,yes,Please label the pictures below.,NA,NA,29,NA,NA,NA,warmup/pug.jpg,dogs,graduated_college,NA,NA,English,male,NA,dogs,NA,3,1570713135038,1,This is a,0.9,These are both,lab,NA,NA,warmup1
536,NA,pug,NA,NA,13,warmup/great-dane.jpg,pug,This is a,NA,2,dogs,elizabeth,NA,great dane,NA,yes,Please label the pictures below.,NA,NA,29,NA,NA,NA,warmup/pug.jpg,dogs,graduated_college,NA,NA,English,male,NA,dogs,NA,3,1570713135038,2,This is a,0.9,These are both,great dane,NA,NA,warmup1
536,What do you think your friend meant?,NA,It is big relative to other,images/tree-parade-redwood.png,13,NA,NA,NA,NA,2,trees,elizabeth,NA,NA,1,yes,"You and your friend see another  redwood (not pictured), and your friend says: <br/><b>That's a big redwood.</b>",prenominal,NA,29,redwoods,NA,1,NA,NA,graduated_college,big,NA,English,male,NA,NA,You and your friend see the following:,1,1570713135038,NA,NA,0.9,NA,NA,NA,congr,custom_main_text1
536,What do you think your friend meant?,NA,It is small relative to other,images/dog-parade-basic.png,13,NA,NA,NA,NA,2,dogs1,elizabeth,NA,NA,0,yes,"You and your friend see another  chihuahua (not pictured), and your friend says: <br/><b>That's a small one.</b>",prenominal,NA,29,chihuahuas,NA,2,NA,NA,graduated_college,small,NA,English,male,NA,NA,You and your friend see the following:,2,1570713135038,NA,NA,0.9,NA,NA,NA,basic,custom_main_text1
536,What do you think your friend meant?,NA,It is big relative to other,images/dog-parade-great-dane.png,13,NA,NA,NA,NA,2,dogs2,elizabeth,NA,NA,1,yes,"You and your friend see another  great dane (not pictured), and your friend says: <br/><b>That's a big dog.</b>",prenominal,NA,29,dogs,NA,0,NA,NA,graduated_college,big,NA,English,male,NA,NA,You and your friend see the following:,3,1570713135038,NA,NA,0.9,NA,NA,NA,congr,custom_main_text1
536,NA,swordfish,NA,NA,13,warmup/goldfish.png,swordfish,This is a,NA,2,fish,elizabeth,NA,goldfish,NA,yes,Please label the pictures below.,NA,NA,29,NA,NA,NA,warmup/swordfish.jpg,fish,graduated_college,NA,NA,English,male,NA,fish,NA,1,1570713135038,1,This is a,0.9,These are both,goldfish,NA,NA,warmup2
536,NA,dandelion,NA,NA,13,warmup/sunflower.png,dandelion,This is a,NA,2,flowers,elizabeth,NA,sunflower,NA,yes,Please label the pictures below.,NA,NA,29,NA,NA,NA,warmup/dandelion.jpg,flowers,graduated_college,NA,NA,English,male,NA,flowers,NA,2,1570713135038,1,This is a,0.9,These are both,sunflower,NA,NA,warmup2
536,NA,hummingbird,NA,NA,13,warmup/eagle.jpg,hummingbird,This is a,NA,2,birds,elizabeth,NA,eagle,NA,yes,Please label the pictures below.,NA,NA,29,NA,NA,NA,warmup/colibri.jpg,birds,graduated_college,NA,NA,English,male,NA,birds,NA,3,1570713135038,1,This is an,0.9,These are both,eagle,NA,NA,warmup2
536,Please rephrase your friend's comment.,NA,It is big relative to other,images/fish-parade-basic.png,13,NA,NA,NA,NA,2,fish,elizabeth,NA,NA,0,yes,"You and your friend see another  swordfish (not pictured), and your friend says: <br/><b>That's a big fish.</b>",prenominal,NA,29,fish,NA,0,NA,NA,graduated_college,big,NA,English,male,NA,NA,You and your friend see the following:,1,1570713135038,NA,NA,0.9,NA,NA,NA,basic,custom_main_text2
536,What do you think your friend meant?,NA,It is small relative to other,images/bird-parade-hummingbird.png,13,NA,NA,NA,NA,2,birds,elizabeth,NA,NA,1,yes,"You and your friend see another  hummingbird (not pictured), and your friend says: <br/><b>That's a small one.</b>",prenominal,NA,29,hummingbirds,NA,2,NA,NA,graduated_college,small,NA,English,male,NA,NA,You and your friend see the following:,2,1570713135038,NA,NA,0.9,NA,NA,NA,congr,custom_main_text2
536,What do you think your friend meant?,NA,It is small relative to other,images/flower-parade-basic.png,13,NA,NA,NA,NA,2,flowers,elizabeth,NA,NA,0,yes,"You and your friend see another  dandelion (not pictured), and your friend says: <br/><b>That's a small dandelion.</b>",prenominal,NA,29,dandelions,NA,1,NA,NA,graduated_college,small,NA,English,male,NA,NA,You and your friend see the following:,3,1570713135038,NA,NA,0.9,NA,NA,NA,basic,custom_main_text2
535,<i>What do you think Speaker A meant? </i>,NA,The Empire State Building is tall relative to other,NA,13,NA,NA,NA,"No problems, but kind of hard to do if you don't know all the types of dogs, birds, trees etc.",1,NA,elizabeth,1,NA,NA,yes,NA,NA,"<b> Speaker A: ""The Empire State Building is tall.""</b>",51,buildings,Thanks.,NA,NA,NA,some_college,NA,comp_class_warmup,english,female,NA,NA,In the main trials you will be asked to rephrase something a person said. The utterance will contain a word that is <i>relative</i> and your task is to figure out what it is relative to. <br /> <br /> For example: <br /><br />,1,1570713138206,1,NA,1.5,NA,NA,"buildings, scyscrapers, houses, constructions (choose one)",NA,comp_class_warmup
535,NA,sparrow,NA,NA,13,warmup/eagle.jpg,hummingbird,This is a,"No problems, but kind of hard to do if you don't know all the types of dogs, birds, trees etc.",1,birds,elizabeth,NA,eagle,NA,yes,Please label the pictures below.,NA,NA,51,NA,Thanks.,NA,warmup/colibri.jpg,birds,some_college,NA,NA,english,female,NA,birds,NA,1,1570713138206,1,This is an,1.5,These are both,eagle,NA,NA,warmup1
535,NA,hummingbird,NA,NA,13,warmup/eagle.jpg,hummingbird,This is a,"No problems, but kind of hard to do if you don't know all the types of dogs, birds, trees etc.",1,birds,elizabeth,NA,eagle,NA,yes,Please label the pictures below.,NA,NA,51,NA,Thanks.,NA,warmup/colibri.jpg,birds,some_college,NA,NA,english,female,NA,birds,NA,1,1570713138206,2,This is an,1.5,These are both,eagle,NA,NA,warmup1
535,NA,bulldog,NA,NA,13,warmup/great-dane.jpg,pug,This is a,"No problems, but kind of hard to do if you don't know all the types of dogs, birds, trees etc.",1,dogs,elizabeth,NA,great dane,NA,yes,Please label the pictures below.,NA,NA,51,NA,Thanks.,NA,warmup/pug.jpg,dogs,some_college,NA,NA,english,female,NA,dogs,NA,2,1570713138206,1,This is a,1.5,These are both,hound,NA,NA,warmup1
535,NA,pug,NA,NA,13,warmup/great-dane.jpg,pug,This is a,"No problems, but kind of hard to do if you don't know all the types of dogs, birds, trees etc.",1,dogs,elizabeth,NA,great dane,NA,yes,Please label the pictures below.,NA,NA,51,NA,Thanks.,NA,warmup/pug.jpg,dogs,some_college,NA,NA,english,female,NA,dogs,NA,2,1570713138206,2,This is a,1.5,These are both,great dane,NA,NA,warmup1
535,NA,chiuawa,NA,NA,13,warmup/doberman.png,chihuahua,This is a,"No problems, but kind of hard to do if you don't know all the types of dogs, birds, trees etc.",1,dogs,elizabeth,NA,doberman,NA,yes,Please label the pictures below.,NA,NA,51,NA,Thanks.,NA,warmup/chihuahua.jpg,dogs,some_college,NA,NA,english,female,NA,dogs,NA,3,1570713138206,1,This is a,1.5,These are both,great dane,NA,NA,warmup1
535,NA,chihuahua,NA,NA,13,warmup/doberman.png,chihuahua,This is a,"No problems, but kind of hard to do if you don't know all the types of dogs, birds, trees etc.",1,dogs,elizabeth,NA,doberman,NA,yes,Please label the pictures below.,NA,NA,51,NA,Thanks.,NA,warmup/chihuahua.jpg,dogs,some_college,NA,NA,english,female,NA,dogs,NA,3,1570713138206,2,This is a,1.5,These are both,doberman,NA,NA,warmup1
535,What do you think your friend meant?,NA,It is small relative to other,images/dog-parade-basic2.png,13,NA,NA,NA,"No problems, but kind of hard to do if you don't know all the types of dogs, birds, trees etc.",1,dogs2,elizabeth,NA,NA,0,yes,"You and your friend see another  pug (not pictured), and your friend says: <br/><b>That's a small pug.</b>",prenominal,NA,51,pugs,Thanks.,1,NA,NA,some_college,small,NA,english,female,NA,NA,You and your friend see the following:,1,1570713138206,NA,NA,1.5,NA,NA,NA,basic,custom_main_text1
535,What do you think your friend meant?,NA,It is big relative to other,images/dog-parade-basic.png,13,NA,NA,NA,"No problems, but kind of hard to do if you don't know all the types of dogs, birds, trees etc.",1,dogs1,elizabeth,NA,NA,0,yes,"You and your friend see another  doberman (not pictured), and your friend says: <br/><b>That's a big doberman.</b>",prenominal,NA,51,dogs,Thanks.,1,NA,NA,some_college,big,NA,english,female,NA,NA,You and your friend see the following:,2,1570713138206,NA,NA,1.5,NA,NA,NA,basic,custom_main_text1
535,What do you think your friend meant?,NA,It is big relative to other,images/bird-parade-eagle.png,13,NA,NA,NA,"No problems, but kind of hard to do if you don't know all the types of dogs, birds, trees etc.",1,birds,elizabeth,NA,NA,1,yes,"You and your friend see another  eagle (not pictured), and your friend says: <br/><b>That's a big bird.</b>",prenominal,NA,51,birds,Thanks.,0,NA,NA,some_college,big,NA,english,female,NA,NA,You and your friend see the following:,3,1570713138206,NA,NA,1.5,NA,NA,NA,congr,custom_main_text1
535,NA,marlin,NA,NA,13,warmup/goldfish.png,swordfish,This is a,"No problems, but kind of hard to do if you don't know all the types of dogs, birds, trees etc.",1,fish,elizabeth,NA,goldfish,NA,yes,Please label the pictures below.,NA,NA,51,NA,Thanks.,NA,warmup/swordfish.jpg,fish,some_college,NA,NA,english,female,NA,fish,NA,1,1570713138206,1,This is a,1.5,These are both,goldfish,NA,NA,warmup2
535,NA,swordfish,NA,NA,13,warmup/goldfish.png,swordfish,This is a,"No problems, but kind of hard to do if you don't know all the types of dogs, birds, trees etc.",1,fish,elizabeth,NA,goldfish,NA,yes,Please label the pictures below.,NA,NA,51,NA,Thanks.,NA,warmup/swordfish.jpg,fish,some_college,NA,NA,english,female,NA,fish,NA,1,1570713138206,2,This is a,1.5,These are both,goldfish,NA,NA,warmup2
535,NA,elm,NA,NA,13,warmup/bonsai.jpg,redwood or sequoia (choose one),This is a,"No problems, but kind of hard to do if you don't know all the types of dogs, birds, trees etc.",1,trees,elizabeth,NA,bonsai,NA,yes,Please label the pictures below.,NA,NA,51,NA,Thanks.,NA,warmup/sequoia.png,trees,some_college,NA,NA,english,female,NA,trees,NA,2,1570713138206,1,This is a,1.5,These are both,fir,NA,NA,warmup2
535,NA,redwood,NA,NA,13,warmup/bonsai.jpg,redwood or sequoia (choose one),This is a,"No problems, but kind of hard to do if you don't know all the types of dogs, birds, trees etc.",1,trees,elizabeth,NA,bonsai,NA,yes,Please label the pictures below.,NA,NA,51,NA,Thanks.,NA,warmup/sequoia.png,trees,some_college,NA,NA,english,female,NA,trees,NA,2,1570713138206,2,This is a,1.5,These are both,bonsai,NA,NA,warmup2
535,NA,daisy,NA,NA,13,warmup/sunflower.png,dandelion,This is a,"No problems, but kind of hard to do if you don't know all the types of dogs, birds, trees etc.",1,flowers,elizabeth,NA,sunflower,NA,yes,Please label the pictures below.,NA,NA,51,NA,Thanks.,NA,warmup/dandelion.jpg,flowers,some_college,NA,NA,english,female,NA,flowers,NA,3,1570713138206,1,This is a,1.5,These are both,sunflower,NA,NA,warmup2
535,NA,dandelion,NA,NA,13,warmup/sunflower.png,dandelion,This is a,"No problems, but kind of hard to do if you don't know all the types of dogs, birds, trees etc.",1,flowers,elizabeth,NA,sunflower,NA,yes,Please label the pictures below.,NA,NA,51,NA,Thanks.,NA,warmup/dandelion.jpg,flowers,some_college,NA,NA,english,female,NA,flowers,NA,3,1570713138206,2,This is a,1.5,These are both,sunflower,NA,NA,warmup2
535,What do you think your friend meant?,NA,It is big relative to other,images/tree-parade-basic.png,13,NA,NA,NA,"No problems, but kind of hard to do if you don't know all the types of dogs, birds, trees etc.",1,trees,elizabeth,NA,NA,0,yes,"You and your friend see another  redwood (not pictured), and your friend says: <br/><b>That's a big one.</b>",prenominal,NA,51,redwoods,Thanks.,2,NA,NA,some_college,big,NA,english,female,NA,NA,You and your friend see the following:,1,1570713138206,NA,NA,1.5,NA,NA,NA,basic,custom_main_text2
535,Please rephrase your friend's comment.,NA,It is small relative to other,images/fish-parade-goldfish.png,13,NA,NA,NA,"No problems, but kind of hard to do if you don't know all the types of dogs, birds, trees etc.",1,fish,elizabeth,NA,NA,1,yes,"You and your friend see another  goldfish (not pictured), and your friend says: <br/><b>That's a small fish.</b>",prenominal,NA,51,fish,Thanks.,0,NA,NA,some_college,small,NA,english,female,NA,NA,You and your friend see the following:,2,1570713138206,NA,NA,1.5,NA,NA,NA,congr,custom_main_text2
