submission_id,question,response1,target_picture,context_picture,experiment_id,picture2,correct1,question1,problems,enjoyment,item,botresponse,trials,correct2,understand,text,sentence,syntax,ref_np,target,age,response,comments,picture1,education,target_size,name,languages,sex,RT,context,trial_number,startTime,attempts,paraphrase,question3,fairprice,response2,correct,adj_cond,trial_name,adj,utterance
2237,<i>What do you think Speaker A meant? </i>,NA,NA,NA,34,NA,NA,NA,no,0,NA,linda,1,NA,yes,NA,"<b> Speaker A: ""The Empire State Building is tall.""</b>",NA,NA,NA,31,buildings,NA,NA,some_college,NA,comp_class_warmup,english,male,NA,In the main trials you will be asked to rephrase something a person said. The utterance will contain a word that is <i>relative</i> and your task is to figure out what it is relative to. <br /> <br /> For example: <br />,1,1587741893988,1,The Empire State Building is tall relative to other,NA,2.5,NA,"buildings, skyscrapers, houses, constructions (choose one)",NA,comp_class_warmup,NA,NA
2237,NA,dandelion,NA,NA,34,warmup/sunflower2.png,dandelion,This is a,no,0,flowers,linda,NA,sunflower,yes,Your turn! Please label the pictures below.,NA,NA,NA,NA,31,NA,NA,warmup/dandelion2.png,some_college,NA,NA,english,male,NA,NA,1,1587741893988,1,NA,This is a,2.5,sunflower,NA,NA,warmup1,NA,NA
2237,NA,pug,NA,NA,34,warmup/great-dane2.png,pug,This is a,no,0,dogs2,linda,NA,great dane,yes,Your turn! Please label the pictures below.,NA,NA,NA,NA,31,NA,NA,warmup/pug2.png,some_college,NA,NA,english,male,NA,NA,2,1587741893988,1,NA,This is a,2.5,great dane,NA,NA,warmup1,NA,NA
2237,NA,hummingbird,NA,NA,34,warmup/eagle2.png,hummingbird,This is a,no,0,birds,linda,NA,eagle,yes,Your turn! Please label the pictures below.,NA,NA,NA,NA,31,NA,NA,warmup/hummingbird2.png,some_college,NA,NA,english,male,NA,NA,3,1587741893988,1,NA,This is an,2.5,eagle,NA,NA,warmup1,NA,NA
2237,What do you think your friend is saying is it small relative to?,NA,images/hummingbird.png,images/bird-parade-basic.png,34,NA,NA,NA,no,0,birds,linda,NA,NA,yes,Your friend goes ahead of you. You see your friend in the distance:,NA,pred,rescue,hummingbird,31,birds,NA,NA,some_college,small,NA,english,male,16333,You visit your friend who works at an animal shelter and you see the following:,1,1587741893988,NA,It is small relative to other,NA,2.5,NA,NA,congruent,custom_main_text1,small,Your friend says: <br/><b>That rescue is a small hummingbird.</b>
2237,What do you think your friend is saying is it big relative to?,NA,images/pug.png,images/dog-parade-basic2.png,34,NA,NA,NA,no,0,dogs2,linda,NA,NA,yes,Your friend goes ahead of you. You see your friend in the distance:,NA,subj,prize-winner,pug,31,dogs,NA,NA,some_college,small,NA,english,male,9308,You and your friend are at a pet show and you see the following:,2,1587741893988,NA,It is big relative to other,NA,2.5,NA,NA,incongruent,custom_main_text1,big,Your friend says: <br/><b>That big pug is a prize-winner.</b>
2237,What do you think your friend is saying is it small relative to?,NA,images/sunflower.png,images/flower-parade-basic.png,34,NA,NA,NA,no,0,flowers,linda,NA,NA,yes,Your friend goes ahead of you. You see your friend in the distance:,NA,pred,gift,sunflower,31,plants,NA,NA,some_college,big,NA,english,male,6983,You and your friend are at their garden and you see the following:,3,1587741893988,NA,It is small relative to other,NA,2.5,NA,NA,incongruent,custom_main_text1,small,Your friend says: <br/><b>That gift is a small sunflower.</b>
2237,NA,chiwowea,NA,NA,34,warmup/doberman2.png,chihuahua,This is a,no,0,dogs1,linda,NA,doberman,yes,Your turn! Please label the pictures below.,NA,NA,NA,NA,31,NA,NA,warmup/chihuahua2.png,some_college,NA,NA,english,male,NA,NA,1,1587741893988,1,NA,This is a,2.5,doberman,NA,NA,warmup2,NA,NA
2237,NA,chihuahua,NA,NA,34,warmup/doberman2.png,chihuahua,This is a,no,0,dogs1,linda,NA,doberman,yes,Your turn! Please label the pictures below.,NA,NA,NA,NA,31,NA,NA,warmup/chihuahua2.png,some_college,NA,NA,english,male,NA,NA,1,1587741893988,2,NA,This is a,2.5,doberman,NA,NA,warmup2,NA,NA
2237,NA,redwood,NA,NA,34,warmup/bonsai2.png,redwood or sequoia (choose one),This is a,no,0,trees,linda,NA,bonsai,yes,Your turn! Please label the pictures below.,NA,NA,NA,NA,31,NA,NA,warmup/redwood2.png,some_college,NA,NA,english,male,NA,NA,2,1587741893988,1,NA,This is a,2.5,bonsai,NA,NA,warmup2,NA,NA
2237,What do you think your friend is saying is it big relative to?,NA,images/redwood_sign.png,images/tree-parade-basic.png,34,NA,NA,NA,no,0,trees,linda,NA,NA,yes,Your friend goes ahead of you. You see your friend in the distance:,NA,subj,landmark,redwood,31,trees,NA,NA,some_college,big,NA,english,male,203365,You and your friend walk to your friend's cabin in a park for the first time. You want to memorize the path and you see the following:,1,1587741893988,NA,It is big relative to other,NA,2.5,NA,NA,congruent,custom_main_text2,big,Your friend says: <br/><b>That big redwood is a landmark.</b>
2237,What do you think your friend is saying is it small relative to?,NA,images/chihuahua.png,images/dog-parade-basic.png,34,NA,NA,NA,no,0,dogs1,linda,NA,NA,yes,Your friend goes ahead of you. You see your friend in the distance:,NA,pred,service animal,chihuahua,31,dogs,NA,NA,some_college,small,NA,english,male,4454,You and your friend are at an animal training ground and you see the following:,2,1587741893988,NA,It is small relative to other,NA,2.5,NA,NA,congruent,custom_main_text2,small,Your friend says: <br/><b>That service animal is a small chihuahua.</b>
2236,<i>What do you think Speaker A meant? </i>,NA,NA,NA,34,NA,NA,NA,no,1,NA,Sarah,1,NA,yes,NA,"<b> Speaker A: ""The Empire State Building is tall.""</b>",NA,NA,NA,25,buildings,N/A,NA,some_college,NA,comp_class_warmup,English,male,NA,In the main trials you will be asked to rephrase something a person said. The utterance will contain a word that is <i>relative</i> and your task is to figure out what it is relative to. <br /> <br /> For example: <br />,1,1587742289095,1,The Empire State Building is tall relative to other,NA,1,NA,"buildings, skyscrapers, houses, constructions (choose one)",NA,comp_class_warmup,NA,NA
2236,NA,hummingbird,NA,NA,34,warmup/eagle2.png,hummingbird,This is a,no,1,birds,Sarah,NA,eagle,yes,Your turn! Please label the pictures below.,NA,NA,NA,NA,25,NA,N/A,warmup/hummingbird2.png,some_college,NA,NA,English,male,NA,NA,1,1587742289095,1,NA,This is an,1,eagle,NA,NA,warmup1,NA,NA
2236,NA,pug,NA,NA,34,warmup/great-dane2.png,pug,This is a,no,1,dogs2,Sarah,NA,great dane,yes,Your turn! Please label the pictures below.,NA,NA,NA,NA,25,NA,N/A,warmup/pug2.png,some_college,NA,NA,English,male,NA,NA,2,1587742289095,1,NA,This is a,1,great dane,NA,NA,warmup1,NA,NA
2236,NA,redwood,NA,NA,34,warmup/bonsai2.png,redwood or sequoia (choose one),This is a,no,1,trees,Sarah,NA,bonsai,yes,Your turn! Please label the pictures below.,NA,NA,NA,NA,25,NA,N/A,warmup/redwood2.png,some_college,NA,NA,English,male,NA,NA,3,1587742289095,1,NA,This is a,1,bonsai,NA,NA,warmup1,NA,NA
2236,What do you think your friend is saying is it big relative to?,NA,images/great-dane.png,images/dog-parade-basic2.png,34,NA,NA,NA,no,1,dogs2,Sarah,NA,NA,yes,Your friend goes ahead of you. You see your friend in the distance:,NA,subj,prize-winner,Great Dane,25,dogs,N/A,NA,some_college,big,NA,English,male,17931,You and your friend are at a pet show and you see the following:,1,1587742289095,NA,It is big relative to other,NA,1,NA,NA,congruent,custom_main_text1,big,Your friend says: <br/><b>That big Great Dane is a prize-winner.</b>
2236,What do you think your friend is saying is it big relative to?,NA,images/bonsai_stick.png,images/tree-parade-basic.png,34,NA,NA,NA,no,1,trees,Sarah,NA,NA,yes,Your friend goes ahead of you. You see your friend in the distance:,NA,pred,landmark,bonsai,25,bonsais,N/A,NA,some_college,small,NA,English,male,12744,You and your friend walk to your friend's cabin in a park for the first time. You want to memorize the path and you see the following:,2,1587742289095,NA,It is big relative to other,NA,1,NA,NA,incongruent,custom_main_text1,big,Your friend says: <br/><b>That landmark is a big bonsai.</b>
2236,What do you think your friend is saying is it big relative to?,NA,images/eagle.png,images/bird-parade-basic.png,34,NA,NA,NA,no,1,birds,Sarah,NA,NA,yes,Your friend goes ahead of you. You see your friend in the distance:,NA,subj,rescue,eagle,25,eagles,N/A,NA,some_college,big,NA,English,male,6649,You visit your friend who works at an animal shelter and you see the following:,3,1587742289095,NA,It is big relative to other,NA,1,NA,NA,congruent,custom_main_text1,big,Your friend says: <br/><b>That big eagle is a rescue.</b>
2236,NA,chihuahua,NA,NA,34,warmup/doberman2.png,chihuahua,This is a,no,1,dogs1,Sarah,NA,doberman,yes,Your turn! Please label the pictures below.,NA,NA,NA,NA,25,NA,N/A,warmup/chihuahua2.png,some_college,NA,NA,English,male,NA,NA,1,1587742289095,1,NA,This is a,1,doberman,NA,NA,warmup2,NA,NA
2236,NA,dandelion,NA,NA,34,warmup/sunflower2.png,dandelion,This is a,no,1,flowers,Sarah,NA,sunflower,yes,Your turn! Please label the pictures below.,NA,NA,NA,NA,25,NA,N/A,warmup/dandelion2.png,some_college,NA,NA,English,male,NA,NA,2,1587742289095,1,NA,This is a,1,sunflower,NA,NA,warmup2,NA,NA
2236,What do you think your friend is saying is it small relative to?,NA,images/sunflower.png,images/flower-parade-basic.png,34,NA,NA,NA,no,1,flowers,Sarah,NA,NA,yes,Your friend goes ahead of you. You see your friend in the distance:,NA,subj,gift,sunflower,25,sunflowers,N/A,NA,some_college,big,NA,English,male,12681,You and your friend are at their garden and you see the following:,1,1587742289095,NA,It is small relative to other,NA,1,NA,NA,incongruent,custom_main_text2,small,Your friend says: <br/><b>That small sunflower is a gift.</b>
2236,What do you think your friend is saying is it small relative to?,NA,images/chihuahua.png,images/dog-parade-basic.png,34,NA,NA,NA,no,1,dogs1,Sarah,NA,NA,yes,Your friend goes ahead of you. You see your friend in the distance:,NA,pred,service animal,chihuahua,25,dogs,N/A,NA,some_college,small,NA,English,male,6313,You and your friend are at an animal training ground and you see the following:,2,1587742289095,NA,It is small relative to other,NA,1,NA,NA,congruent,custom_main_text2,small,Your friend says: <br/><b>That service animal is a small chihuahua.</b>
2235,<i>What do you think Speaker A meant? </i>,NA,NA,NA,34,NA,NA,NA,Nothing else,2,NA,linda,1,NA,yes,NA,"<b> Speaker A: ""The Empire State Building is tall.""</b>",NA,NA,NA,29,Buildings,"Nice survey , Should be improved with new creatives",NA,graduated_college,NA,comp_class_warmup,English,male,NA,In the main trials you will be asked to rephrase something a person said. The utterance will contain a word that is <i>relative</i> and your task is to figure out what it is relative to. <br /> <br /> For example: <br />,1,1587703053825,1,The Empire State Building is tall relative to other,NA,1,NA,"buildings, skyscrapers, houses, constructions (choose one)",NA,comp_class_warmup,NA,NA
2235,NA,Humming Bird,NA,NA,34,warmup/eagle2.png,hummingbird,This is a,Nothing else,2,birds,linda,NA,eagle,yes,Your turn! Please label the pictures below.,NA,NA,NA,NA,29,NA,"Nice survey , Should be improved with new creatives",warmup/hummingbird2.png,graduated_college,NA,NA,English,male,NA,NA,1,1587703053825,1,NA,This is an,1,Eagle,NA,NA,warmup1,NA,NA
2235,NA,Hummingbird,NA,NA,34,warmup/eagle2.png,hummingbird,This is a,Nothing else,2,birds,linda,NA,eagle,yes,Your turn! Please label the pictures below.,NA,NA,NA,NA,29,NA,"Nice survey , Should be improved with new creatives",warmup/hummingbird2.png,graduated_college,NA,NA,English,male,NA,NA,1,1587703053825,2,NA,This is an,1,Eagle,NA,NA,warmup1,NA,NA
2235,NA,dandelion,NA,NA,34,warmup/sunflower2.png,dandelion,This is a,Nothing else,2,flowers,linda,NA,sunflower,yes,Your turn! Please label the pictures below.,NA,NA,NA,NA,29,NA,"Nice survey , Should be improved with new creatives",warmup/dandelion2.png,graduated_college,NA,NA,English,male,NA,NA,2,1587703053825,1,NA,This is a,1,Sunflower,NA,NA,warmup1,NA,NA
2235,NA,chihuahua,NA,NA,34,warmup/doberman2.png,chihuahua,This is a,Nothing else,2,dogs1,linda,NA,doberman,yes,Your turn! Please label the pictures below.,NA,NA,NA,NA,29,NA,"Nice survey , Should be improved with new creatives",warmup/chihuahua2.png,graduated_college,NA,NA,English,male,NA,NA,3,1587703053825,1,NA,This is a,1,doberman,NA,NA,warmup1,NA,NA
2235,What do you think your friend is saying is it small relative to?,NA,images/chihuahua.png,images/dog-parade-basic.png,34,NA,NA,NA,Nothing else,2,dogs1,linda,NA,NA,yes,Your friend goes ahead of you. You see your friend in the distance:,NA,pred,service animal,chihuahua,29,chihuahua,"Nice survey , Should be improved with new creatives",NA,graduated_college,small,NA,English,male,52699,You and your friend are at an animal training ground and you see the following:,1,1587703053825,NA,It is small relative to other,NA,1,NA,NA,congruent,custom_main_text1,small,Your friend says: <br/><b>That service animal is a small chihuahua.</b>
2235,What do you think your friend is saying is it big relative to?,NA,images/eagle.png,images/bird-parade-basic.png,34,NA,NA,NA,Nothing else,2,birds,linda,NA,NA,yes,Your friend goes ahead of you. You see your friend in the distance:,NA,subj,rescue,eagle,29,Hummingbird,"Nice survey , Should be improved with new creatives",NA,graduated_college,big,NA,English,male,33714,You visit your friend who works at an animal shelter and you see the following:,2,1587703053825,NA,It is big relative to other,NA,1,NA,NA,congruent,custom_main_text1,big,Your friend says: <br/><b>That big eagle is a rescue.</b>
2235,What do you think your friend is saying is it big relative to?,NA,images/sunflower.png,images/flower-parade-basic.png,34,NA,NA,NA,Nothing else,2,flowers,linda,NA,NA,yes,Your friend goes ahead of you. You see your friend in the distance:,NA,subj,gift,sunflower,29,flower,"Nice survey , Should be improved with new creatives",NA,graduated_college,big,NA,English,male,26686,You and your friend are at their garden and you see the following:,3,1587703053825,NA,It is big relative to other,NA,1,NA,NA,congruent,custom_main_text1,big,Your friend says: <br/><b>That big sunflower is a gift.</b>
2235,NA,Redwood,NA,NA,34,warmup/bonsai2.png,redwood or sequoia (choose one),This is a,Nothing else,2,trees,linda,NA,bonsai,yes,Your turn! Please label the pictures below.,NA,NA,NA,NA,29,NA,"Nice survey , Should be improved with new creatives",warmup/redwood2.png,graduated_college,NA,NA,English,male,NA,NA,1,1587703053825,1,NA,This is a,1,Bonsai,NA,NA,warmup2,NA,NA
2235,NA,pug,NA,NA,34,warmup/great-dane2.png,pug,This is a,Nothing else,2,dogs2,linda,NA,great dane,yes,Your turn! Please label the pictures below.,NA,NA,NA,NA,29,NA,"Nice survey , Should be improved with new creatives",warmup/pug2.png,graduated_college,NA,NA,English,male,NA,NA,2,1587703053825,1,NA,This is a,1,Great Dane,NA,NA,warmup2,NA,NA
2235,What do you think your friend is saying is it big relative to?,NA,images/bonsai_stick.png,images/tree-parade-basic.png,34,NA,NA,NA,Nothing else,2,trees,linda,NA,NA,yes,Your friend goes ahead of you. You see your friend in the distance:,NA,subj,landmark,bonsai,29,Redwood,"Nice survey , Should be improved with new creatives",NA,graduated_college,small,NA,English,male,35983,You and your friend walk to your friend's cabin in a park for the first time. You want to memorize the path and you see the following:,1,1587703053825,NA,It is big relative to other,NA,1,NA,NA,incongruent,custom_main_text2,big,Your friend says: <br/><b>That big bonsai is a landmark.</b>
2235,What do you think your friend is saying is it big relative to?,NA,images/pug.png,images/dog-parade-basic2.png,34,NA,NA,NA,Nothing else,2,dogs2,linda,NA,NA,yes,Your friend goes ahead of you. You see your friend in the distance:,NA,pred,prize-winner,pug,29,Great Dane,"Nice survey , Should be improved with new creatives",NA,graduated_college,small,NA,English,male,13312,You and your friend are at a pet show and you see the following:,2,1587703053825,NA,It is big relative to other,NA,1,NA,NA,incongruent,custom_main_text2,big,Your friend says: <br/><b>That prize-winner is a big pug.</b>
2234,<i>What do you think Speaker A meant? </i>,NA,NA,NA,34,NA,NA,NA,no,1,NA,elizabeth,1,NA,yes,NA,"<b> Speaker A: ""The Empire State Building is tall.""</b>",NA,NA,NA,30,other buildings in that state,NA,NA,graduated_college,NA,comp_class_warmup,english,male,NA,In the main trials you will be asked to rephrase something a person said. The utterance will contain a word that is <i>relative</i> and your task is to figure out what it is relative to. <br /> <br /> For example: <br />,1,1587740725750,1,The Empire State Building is tall relative to other,NA,0.5,NA,"buildings, skyscrapers, houses, constructions (choose one)",NA,comp_class_warmup,NA,NA
2234,<i>What do you think Speaker A meant? </i>,NA,NA,NA,34,NA,NA,NA,no,1,NA,elizabeth,1,NA,yes,NA,"<b> Speaker A: ""The Empire State Building is tall.""</b>",NA,NA,NA,30,buildings,NA,NA,graduated_college,NA,comp_class_warmup,english,male,NA,In the main trials you will be asked to rephrase something a person said. The utterance will contain a word that is <i>relative</i> and your task is to figure out what it is relative to. <br /> <br /> For example: <br />,1,1587740725750,2,The Empire State Building is tall relative to other,NA,0.5,NA,"buildings, skyscrapers, houses, constructions (choose one)",NA,comp_class_warmup,NA,NA
2234,NA,humming bird,NA,NA,34,warmup/eagle2.png,hummingbird,This is a,no,1,birds,elizabeth,NA,eagle,yes,Your turn! Please label the pictures below.,NA,NA,NA,NA,30,NA,NA,warmup/hummingbird2.png,graduated_college,NA,NA,english,male,NA,NA,1,1587740725750,1,NA,This is an,0.5,eagle,NA,NA,warmup1,NA,NA
2234,NA,humming bird,NA,NA,34,warmup/eagle2.png,hummingbird,This is a,no,1,birds,elizabeth,NA,eagle,yes,Your turn! Please label the pictures below.,NA,NA,NA,NA,30,NA,NA,warmup/hummingbird2.png,graduated_college,NA,NA,english,male,NA,NA,1,1587740725750,2,NA,This is an,0.5,vulture,NA,NA,warmup1,NA,NA
2234,NA,humming bird,NA,NA,34,warmup/eagle2.png,hummingbird,This is a,no,1,birds,elizabeth,NA,eagle,yes,Your turn! Please label the pictures below.,NA,NA,NA,NA,30,NA,NA,warmup/hummingbird2.png,graduated_college,NA,NA,english,male,NA,NA,1,1587740725750,3,NA,This is an,0.5,vulture,NA,NA,warmup1,NA,NA
2234,NA,hummingbird,NA,NA,34,warmup/eagle2.png,hummingbird,This is a,no,1,birds,elizabeth,NA,eagle,yes,Your turn! Please label the pictures below.,NA,NA,NA,NA,30,NA,NA,warmup/hummingbird2.png,graduated_college,NA,NA,english,male,NA,NA,1,1587740725750,4,NA,This is an,0.5,eagle,NA,NA,warmup1,NA,NA
2234,NA,pug,NA,NA,34,warmup/great-dane2.png,pug,This is a,no,1,dogs2,elizabeth,NA,great dane,yes,Your turn! Please label the pictures below.,NA,NA,NA,NA,30,NA,NA,warmup/pug2.png,graduated_college,NA,NA,english,male,NA,NA,2,1587740725750,1,NA,This is a,0.5,great dane,NA,NA,warmup1,NA,NA
2234,NA,redwood,NA,NA,34,warmup/bonsai2.png,redwood or sequoia (choose one),This is a,no,1,trees,elizabeth,NA,bonsai,yes,Your turn! Please label the pictures below.,NA,NA,NA,NA,30,NA,NA,warmup/redwood2.png,graduated_college,NA,NA,english,male,NA,NA,3,1587740725750,1,NA,This is a,0.5,bonsai,NA,NA,warmup1,NA,NA
2234,What do you think your friend is saying is it small relative to?,NA,images/hummingbird.png,images/bird-parade-basic.png,34,NA,NA,NA,no,1,birds,elizabeth,NA,NA,yes,Your friend goes ahead of you. You see your friend in the distance:,NA,subj,rescue,hummingbird,30,birds,NA,NA,graduated_college,small,NA,english,male,26135,You visit your friend who works at an animal shelter and you see the following:,1,1587740725750,NA,It is small relative to other,NA,0.5,NA,NA,congruent,custom_main_text1,small,Your friend says: <br/><b>That small hummingbird is a rescue.</b>
2234,What do you think your friend is saying is it small relative to?,NA,images/great-dane.png,images/dog-parade-basic2.png,34,NA,NA,NA,no,1,dogs2,elizabeth,NA,NA,yes,Your friend goes ahead of you. You see your friend in the distance:,NA,pred,prize-winner,Great Dane,30,great dane,NA,NA,graduated_college,big,NA,english,male,15877,You and your friend are at a pet show and you see the following:,2,1587740725750,NA,It is small relative to other,NA,0.5,NA,NA,incongruent,custom_main_text1,small,Your friend says: <br/><b>That prize-winner is a small Great Dane.</b>
2234,What do you think your friend is saying is it big relative to?,NA,images/bonsai_stick.png,images/tree-parade-basic.png,34,NA,NA,NA,no,1,trees,elizabeth,NA,NA,yes,Your friend goes ahead of you. You see your friend in the distance:,NA,pred,landmark,bonsai,30,trees,NA,NA,graduated_college,small,NA,english,male,21576,You and your friend walk to your friend's cabin in a park for the first time. You want to memorize the path and you see the following:,3,1587740725750,NA,It is big relative to other,NA,0.5,NA,NA,incongruent,custom_main_text1,big,Your friend says: <br/><b>That landmark is a big bonsai.</b>
2234,NA,dandelion,NA,NA,34,warmup/sunflower2.png,dandelion,This is a,no,1,flowers,elizabeth,NA,sunflower,yes,Your turn! Please label the pictures below.,NA,NA,NA,NA,30,NA,NA,warmup/dandelion2.png,graduated_college,NA,NA,english,male,NA,NA,1,1587740725750,1,NA,This is a,0.5,sunflower,NA,NA,warmup2,NA,NA
2234,NA,chihuahua,NA,NA,34,warmup/doberman2.png,chihuahua,This is a,no,1,dogs1,elizabeth,NA,doberman,yes,Your turn! Please label the pictures below.,NA,NA,NA,NA,30,NA,NA,warmup/chihuahua2.png,graduated_college,NA,NA,english,male,NA,NA,2,1587740725750,1,NA,This is a,0.5,dauberman,NA,NA,warmup2,NA,NA
2234,NA,chihuahua,NA,NA,34,warmup/doberman2.png,chihuahua,This is a,no,1,dogs1,elizabeth,NA,doberman,yes,Your turn! Please label the pictures below.,NA,NA,NA,NA,30,NA,NA,warmup/chihuahua2.png,graduated_college,NA,NA,english,male,NA,NA,2,1587740725750,2,NA,This is a,0.5,doberman,NA,NA,warmup2,NA,NA
2234,What do you think your friend is saying is it big relative to?,NA,images/sunflower.png,images/flower-parade-basic.png,34,NA,NA,NA,no,1,flowers,elizabeth,NA,NA,yes,Your friend goes ahead of you. You see your friend in the distance:,NA,pred,gift,sunflower,30,flowers,NA,NA,graduated_college,big,NA,english,male,12639,You and your friend are at their garden and you see the following:,1,1587740725750,NA,It is big relative to other,NA,0.5,NA,NA,congruent,custom_main_text2,big,Your friend says: <br/><b>That gift is a big sunflower.</b>
2234,What do you think your friend is saying is it big relative to?,NA,images/chihuahua.png,images/dog-parade-basic.png,34,NA,NA,NA,no,1,dogs1,elizabeth,NA,NA,yes,Your friend goes ahead of you. You see your friend in the distance:,NA,subj,service animal,chihuahua,30,dogs,NA,NA,graduated_college,small,NA,english,male,10689,You and your friend are at an animal training ground and you see the following:,2,1587740725750,NA,It is big relative to other,NA,0.5,NA,NA,incongruent,custom_main_text2,big,Your friend says: <br/><b>That big chihuahua is a service animal.</b>
2233,<i>What do you think Speaker A meant? </i>,NA,NA,NA,34,NA,NA,NA,no,1,NA,Patricia,1,NA,NA,NA,"<b> Speaker A: ""The Empire State Building is tall.""</b>",NA,NA,NA,NA,buildings,NA,NA,some_college,NA,comp_class_warmup,English,NA,NA,In the main trials you will be asked to rephrase something a person said. The utterance will contain a word that is <i>relative</i> and your task is to figure out what it is relative to. <br /> <br /> For example: <br />,1,1587740835207,1,The Empire State Building is tall relative to other,NA,2,NA,"buildings, skyscrapers, houses, constructions (choose one)",NA,comp_class_warmup,NA,NA
2233,NA,pug,NA,NA,34,warmup/great-dane2.png,pug,This is a,no,1,dogs2,Patricia,NA,great dane,NA,Your turn! Please label the pictures below.,NA,NA,NA,NA,NA,NA,NA,warmup/pug2.png,some_college,NA,NA,English,NA,NA,NA,1,1587740835207,1,NA,This is a,2,great dane,NA,NA,warmup1,NA,NA
2233,NA,humming bird,NA,NA,34,warmup/eagle2.png,hummingbird,This is a,no,1,birds,Patricia,NA,eagle,NA,Your turn! Please label the pictures below.,NA,NA,NA,NA,NA,NA,NA,warmup/hummingbird2.png,some_college,NA,NA,English,NA,NA,NA,2,1587740835207,1,NA,This is an,2,eagle,NA,NA,warmup1,NA,NA
2233,NA,hummingbird,NA,NA,34,warmup/eagle2.png,hummingbird,This is a,no,1,birds,Patricia,NA,eagle,NA,Your turn! Please label the pictures below.,NA,NA,NA,NA,NA,NA,NA,warmup/hummingbird2.png,some_college,NA,NA,English,NA,NA,NA,2,1587740835207,2,NA,This is an,2,eagle,NA,NA,warmup1,NA,NA
2233,NA,redwood,NA,NA,34,warmup/bonsai2.png,redwood or sequoia (choose one),This is a,no,1,trees,Patricia,NA,bonsai,NA,Your turn! Please label the pictures below.,NA,NA,NA,NA,NA,NA,NA,warmup/redwood2.png,some_college,NA,NA,English,NA,NA,NA,3,1587740835207,1,NA,This is a,2,bonsai,NA,NA,warmup1,NA,NA
2233,What do you think your friend is saying is it small relative to?,NA,images/redwood_sign.png,images/tree-parade-basic.png,34,NA,NA,NA,no,1,trees,Patricia,NA,NA,NA,Your friend goes ahead of you. You see your friend in the distance:,NA,subj,landmark,redwood,NA,trees,NA,NA,some_college,big,NA,English,NA,9539,You and your friend walk to your friend's cabin in a park for the first time. You want to memorize the path and you see the following:,1,1587740835207,NA,It is small relative to other,NA,2,NA,NA,incongruent,custom_main_text1,small,Your friend says: <br/><b>That small redwood is a landmark.</b>
2233,What do you think your friend is saying is it small relative to?,NA,images/pug.png,images/dog-parade-basic2.png,34,NA,NA,NA,no,1,dogs2,Patricia,NA,NA,NA,Your friend goes ahead of you. You see your friend in the distance:,NA,subj,prize-winner,pug,NA,dogs,NA,NA,some_college,small,NA,English,NA,7709,You and your friend are at a pet show and you see the following:,2,1587740835207,NA,It is small relative to other,NA,2,NA,NA,congruent,custom_main_text1,small,Your friend says: <br/><b>That small pug is a prize-winner.</b>
2233,What do you think your friend is saying is it small relative to?,NA,images/eagle.png,images/bird-parade-basic.png,34,NA,NA,NA,no,1,birds,Patricia,NA,NA,NA,Your friend goes ahead of you. You see your friend in the distance:,NA,pred,rescue,eagle,NA,birds,NA,NA,some_college,big,NA,English,NA,6460,You visit your friend who works at an animal shelter and you see the following:,3,1587740835207,NA,It is small relative to other,NA,2,NA,NA,incongruent,custom_main_text1,small,Your friend says: <br/><b>That rescue is a small eagle.</b>
2233,NA,dandelion,NA,NA,34,warmup/sunflower2.png,dandelion,This is a,no,1,flowers,Patricia,NA,sunflower,NA,Your turn! Please label the pictures below.,NA,NA,NA,NA,NA,NA,NA,warmup/dandelion2.png,some_college,NA,NA,English,NA,NA,NA,1,1587740835207,1,NA,This is a,2,sunflower,NA,NA,warmup2,NA,NA
2233,NA,chihuahua,NA,NA,34,warmup/doberman2.png,chihuahua,This is a,no,1,dogs1,Patricia,NA,doberman,NA,Your turn! Please label the pictures below.,NA,NA,NA,NA,NA,NA,NA,warmup/chihuahua2.png,some_college,NA,NA,English,NA,NA,NA,2,1587740835207,1,NA,This is a,2,doberman,NA,NA,warmup2,NA,NA
2233,What do you think your friend is saying is it big relative to?,NA,images/dandelion.png,images/flower-parade-basic.png,34,NA,NA,NA,no,1,flowers,Patricia,NA,NA,NA,Your friend goes ahead of you. You see your friend in the distance:,NA,subj,gift,dandelion,NA,flowers,NA,NA,some_college,small,NA,English,NA,12795,You and your friend are at their garden and you see the following:,1,1587740835207,NA,It is big relative to other,NA,2,NA,NA,incongruent,custom_main_text2,big,Your friend says: <br/><b>That big dandelion is a gift.</b>
2233,What do you think your friend is saying is it small relative to?,NA,images/chihuahua.png,images/dog-parade-basic.png,34,NA,NA,NA,no,1,dogs1,Patricia,NA,NA,NA,Your friend goes ahead of you. You see your friend in the distance:,NA,pred,service animal,chihuahua,NA,dogs,NA,NA,some_college,small,NA,English,NA,10515,You and your friend are at an animal training ground and you see the following:,2,1587740835207,NA,It is small relative to other,NA,2,NA,NA,congruent,custom_main_text2,small,Your friend says: <br/><b>That service animal is a small chihuahua.</b>
2232,<i>What do you think Speaker A meant? </i>,NA,NA,NA,34,NA,NA,NA,no issues,1,NA,elizabeth,1,NA,confused,NA,"<b> Speaker A: ""The Empire State Building is tall.""</b>",NA,NA,NA,33,buildings,no comment,NA,graduated_college,NA,comp_class_warmup,English,male,NA,In the main trials you will be asked to rephrase something a person said. The utterance will contain a word that is <i>relative</i> and your task is to figure out what it is relative to. <br /> <br /> For example: <br />,1,1587739965810,1,The Empire State Building is tall relative to other,NA,0.75,NA,"buildings, skyscrapers, houses, constructions (choose one)",NA,comp_class_warmup,NA,NA
2232,NA,dandelion,NA,NA,34,warmup/sunflower2.png,dandelion,This is a,no issues,1,flowers,elizabeth,NA,sunflower,confused,Your turn! Please label the pictures below.,NA,NA,NA,NA,33,NA,no comment,warmup/dandelion2.png,graduated_college,NA,NA,English,male,NA,NA,1,1587739965810,1,NA,This is a,0.75,sunflower,NA,NA,warmup1,NA,NA
2232,NA,redwood,NA,NA,34,warmup/bonsai2.png,redwood or sequoia (choose one),This is a,no issues,1,trees,elizabeth,NA,bonsai,confused,Your turn! Please label the pictures below.,NA,NA,NA,NA,33,NA,no comment,warmup/redwood2.png,graduated_college,NA,NA,English,male,NA,NA,2,1587739965810,1,NA,This is a,0.75,bonsai,NA,NA,warmup1,NA,NA
2232,NA,pug,NA,NA,34,warmup/great-dane2.png,pug,This is a,no issues,1,dogs2,elizabeth,NA,great dane,confused,Your turn! Please label the pictures below.,NA,NA,NA,NA,33,NA,no comment,warmup/pug2.png,graduated_college,NA,NA,English,male,NA,NA,3,1587739965810,1,NA,This is a,0.75,Great Dane,NA,NA,warmup1,NA,NA
2232,What do you think your friend is saying is it small relative to?,NA,images/bonsai_stick.png,images/tree-parade-basic.png,34,NA,NA,NA,no issues,1,trees,elizabeth,NA,NA,confused,Your friend goes ahead of you. You see your friend in the distance:,NA,pred,landmark,bonsai,33,trees,no comment,NA,graduated_college,small,NA,English,male,23754,You and your friend walk to your friend's cabin in a park for the first time. You want to memorize the path and you see the following:,1,1587739965810,NA,It is small relative to other,NA,0.75,NA,NA,congruent,custom_main_text1,small,Your friend says: <br/><b>That landmark is a small bonsai.</b>
2232,What do you think your friend is saying is it small relative to?,NA,images/sunflower.png,images/flower-parade-basic.png,34,NA,NA,NA,no issues,1,flowers,elizabeth,NA,NA,confused,Your friend goes ahead of you. You see your friend in the distance:,NA,pred,gift,sunflower,33,flowers,no comment,NA,graduated_college,big,NA,English,male,27252,You and your friend are at their garden and you see the following:,2,1587739965810,NA,It is small relative to other,NA,0.75,NA,NA,incongruent,custom_main_text1,small,Your friend says: <br/><b>That gift is a small sunflower.</b>
2232,What do you think your friend is saying is it small relative to?,NA,images/pug.png,images/dog-parade-basic2.png,34,NA,NA,NA,no issues,1,dogs2,elizabeth,NA,NA,confused,Your friend goes ahead of you. You see your friend in the distance:,NA,subj,prize-winner,pug,33,pets,no comment,NA,graduated_college,small,NA,English,male,46770,You and your friend are at a pet show and you see the following:,3,1587739965810,NA,It is small relative to other,NA,0.75,NA,NA,congruent,custom_main_text1,small,Your friend says: <br/><b>That small pug is a prize-winner.</b>
2232,NA,chihuahua,NA,NA,34,warmup/doberman2.png,chihuahua,This is a,no issues,1,dogs1,elizabeth,NA,doberman,confused,Your turn! Please label the pictures below.,NA,NA,NA,NA,33,NA,no comment,warmup/chihuahua2.png,graduated_college,NA,NA,English,male,NA,NA,1,1587739965810,1,NA,This is a,0.75,doberman,NA,NA,warmup2,NA,NA
2232,NA,hummingbird,NA,NA,34,warmup/eagle2.png,hummingbird,This is a,no issues,1,birds,elizabeth,NA,eagle,confused,Your turn! Please label the pictures below.,NA,NA,NA,NA,33,NA,no comment,warmup/hummingbird2.png,graduated_college,NA,NA,English,male,NA,NA,2,1587739965810,1,NA,This is an,0.75,eagle,NA,NA,warmup2,NA,NA
2232,What do you think your friend is saying is it small relative to?,NA,images/eagle.png,images/bird-parade-basic.png,34,NA,NA,NA,no issues,1,birds,elizabeth,NA,NA,confused,Your friend goes ahead of you. You see your friend in the distance:,NA,pred,rescue,eagle,33,eagles,no comment,NA,graduated_college,big,NA,English,male,21291,You visit your friend who works at an animal shelter and you see the following:,1,1587739965810,NA,It is small relative to other,NA,0.75,NA,NA,incongruent,custom_main_text2,small,Your friend says: <br/><b>That rescue is a small eagle.</b>
2232,What do you think your friend is saying is it big relative to?,NA,images/chihuahua.png,images/dog-parade-basic.png,34,NA,NA,NA,no issues,1,dogs1,elizabeth,NA,NA,confused,Your friend goes ahead of you. You see your friend in the distance:,NA,subj,service animal,chihuahua,33,chihuahuas,no comment,NA,graduated_college,small,NA,English,male,17100,You and your friend are at an animal training ground and you see the following:,2,1587739965810,NA,It is big relative to other,NA,0.75,NA,NA,incongruent,custom_main_text2,big,Your friend says: <br/><b>That big chihuahua is a service animal.</b>
2231,<i>What do you think Speaker A meant? </i>,NA,NA,NA,34,NA,NA,NA,No issues.,1,NA,linda,1,NA,yes,NA,"<b> Speaker A: ""The Empire State Building is tall.""</b>",NA,NA,NA,49,buildings,Thank you.,NA,graduated_high_school,NA,comp_class_warmup,English,male,NA,In the main trials you will be asked to rephrase something a person said. The utterance will contain a word that is <i>relative</i> and your task is to figure out what it is relative to. <br /> <br /> For example: <br />,1,1587740256911,1,The Empire State Building is tall relative to other,NA,1,NA,"buildings, skyscrapers, houses, constructions (choose one)",NA,comp_class_warmup,NA,NA
2231,NA,daffodil,NA,NA,34,warmup/sunflower2.png,dandelion,This is a,No issues.,1,flowers,linda,NA,sunflower,yes,Your turn! Please label the pictures below.,NA,NA,NA,NA,49,NA,Thank you.,warmup/dandelion2.png,graduated_high_school,NA,NA,English,male,NA,NA,1,1587740256911,1,NA,This is a,1,sunflower,NA,NA,warmup1,NA,NA
2231,NA,dandelion,NA,NA,34,warmup/sunflower2.png,dandelion,This is a,No issues.,1,flowers,linda,NA,sunflower,yes,Your turn! Please label the pictures below.,NA,NA,NA,NA,49,NA,Thank you.,warmup/dandelion2.png,graduated_high_school,NA,NA,English,male,NA,NA,1,1587740256911,2,NA,This is a,1,sunflower,NA,NA,warmup1,NA,NA
2231,NA,hummingbird,NA,NA,34,warmup/eagle2.png,hummingbird,This is a,No issues.,1,birds,linda,NA,eagle,yes,Your turn! Please label the pictures below.,NA,NA,NA,NA,49,NA,Thank you.,warmup/hummingbird2.png,graduated_high_school,NA,NA,English,male,NA,NA,2,1587740256911,1,NA,This is an,1,eagle,NA,NA,warmup1,NA,NA
2231,NA,pug,NA,NA,34,warmup/great-dane2.png,pug,This is a,No issues.,1,dogs2,linda,NA,great dane,yes,Your turn! Please label the pictures below.,NA,NA,NA,NA,49,NA,Thank you.,warmup/pug2.png,graduated_high_school,NA,NA,English,male,NA,NA,3,1587740256911,1,NA,This is a,1,great dane,NA,NA,warmup1,NA,NA
2231,What do you think your friend is saying is it big relative to?,NA,images/hummingbird.png,images/bird-parade-basic.png,34,NA,NA,NA,No issues.,1,birds,linda,NA,NA,yes,Your friend goes ahead of you. You see your friend in the distance:,NA,pred,rescue,hummingbird,49,hummingbirds,Thank you.,NA,graduated_high_school,small,NA,English,male,23840,You visit your friend who works at an animal shelter and you see the following:,1,1587740256911,NA,It is big relative to other,NA,1,NA,NA,incongruent,custom_main_text1,big,Your friend says: <br/><b>That rescue is a big hummingbird.</b>
2231,What do you think your friend is saying is it big relative to?,NA,images/great-dane.png,images/dog-parade-basic2.png,34,NA,NA,NA,No issues.,1,dogs2,linda,NA,NA,yes,Your friend goes ahead of you. You see your friend in the distance:,NA,pred,prize-winner,Great Dane,49,dogs,Thank you.,NA,graduated_high_school,big,NA,English,male,12376,You and your friend are at a pet show and you see the following:,2,1587740256911,NA,It is big relative to other,NA,1,NA,NA,congruent,custom_main_text1,big,Your friend says: <br/><b>That prize-winner is a big Great Dane.</b>
2231,What do you think your friend is saying is it small relative to?,NA,images/sunflower.png,images/flower-parade-basic.png,34,NA,NA,NA,No issues.,1,flowers,linda,NA,NA,yes,Your friend goes ahead of you. You see your friend in the distance:,NA,subj,gift,sunflower,49,sunflowers,Thank you.,NA,graduated_high_school,big,NA,English,male,11544,You and your friend are at their garden and you see the following:,3,1587740256911,NA,It is small relative to other,NA,1,NA,NA,incongruent,custom_main_text1,small,Your friend says: <br/><b>That small sunflower is a gift.</b>
2231,NA,redwood,NA,NA,34,warmup/bonsai2.png,redwood or sequoia (choose one),This is a,No issues.,1,trees,linda,NA,bonsai,yes,Your turn! Please label the pictures below.,NA,NA,NA,NA,49,NA,Thank you.,warmup/redwood2.png,graduated_high_school,NA,NA,English,male,NA,NA,1,1587740256911,1,NA,This is a,1,bonsai,NA,NA,warmup2,NA,NA
2231,NA,chihuahua,NA,NA,34,warmup/doberman2.png,chihuahua,This is a,No issues.,1,dogs1,linda,NA,doberman,yes,Your turn! Please label the pictures below.,NA,NA,NA,NA,49,NA,Thank you.,warmup/chihuahua2.png,graduated_high_school,NA,NA,English,male,NA,NA,2,1587740256911,1,NA,This is a,1,doberman,NA,NA,warmup2,NA,NA
2231,What do you think your friend is saying is it small relative to?,NA,images/bonsai_stick.png,images/tree-parade-basic.png,34,NA,NA,NA,No issues.,1,trees,linda,NA,NA,yes,Your friend goes ahead of you. You see your friend in the distance:,NA,subj,landmark,bonsai,49,trees,Thank you.,NA,graduated_high_school,small,NA,English,male,17432,You and your friend walk to your friend's cabin in a park for the first time. You want to memorize the path and you see the following:,1,1587740256911,NA,It is small relative to other,NA,1,NA,NA,congruent,custom_main_text2,small,Your friend says: <br/><b>That small bonsai is a landmark.</b>
2231,What do you think your friend is saying is it big relative to?,NA,images/chihuahua.png,images/dog-parade-basic.png,34,NA,NA,NA,No issues.,1,dogs1,linda,NA,NA,yes,Your friend goes ahead of you. You see your friend in the distance:,NA,subj,service animal,chihuahua,49,chihuahuas,Thank you.,NA,graduated_high_school,small,NA,English,male,17888,You and your friend are at an animal training ground and you see the following:,2,1587740256911,NA,It is big relative to other,NA,1,NA,NA,incongruent,custom_main_text2,big,Your friend says: <br/><b>That big chihuahua is a service animal.</b>
2230,<i>What do you think Speaker A meant? </i>,NA,NA,NA,34,NA,NA,NA,no,2,NA,Linda,1,NA,yes,NA,"<b> Speaker A: ""The Empire State Building is tall.""</b>",NA,NA,NA,32,building,good,NA,higher_degree,NA,comp_class_warmup,English,male,NA,In the main trials you will be asked to rephrase something a person said. The utterance will contain a word that is <i>relative</i> and your task is to figure out what it is relative to. <br /> <br /> For example: <br />,1,1587739318037,1,The Empire State Building is tall relative to other,NA,1,NA,"buildings, skyscrapers, houses, constructions (choose one)",NA,comp_class_warmup,NA,NA
2230,NA,hummingbird,NA,NA,34,warmup/eagle2.png,hummingbird,This is a,no,2,birds,Linda,NA,eagle,yes,Your turn! Please label the pictures below.,NA,NA,NA,NA,32,NA,good,warmup/hummingbird2.png,higher_degree,NA,NA,English,male,NA,NA,1,1587739318037,1,NA,This is an,1,eagle,NA,NA,warmup1,NA,NA
2230,NA,redwood,NA,NA,34,warmup/bonsai2.png,redwood or sequoia (choose one),This is a,no,2,trees,Linda,NA,bonsai,yes,Your turn! Please label the pictures below.,NA,NA,NA,NA,32,NA,good,warmup/redwood2.png,higher_degree,NA,NA,English,male,NA,NA,2,1587739318037,1,NA,This is a,1,bonsai,NA,NA,warmup1,NA,NA
2230,NA,chihuahua,NA,NA,34,warmup/doberman2.png,chihuahua,This is a,no,2,dogs1,Linda,NA,doberman,yes,Your turn! Please label the pictures below.,NA,NA,NA,NA,32,NA,good,warmup/chihuahua2.png,higher_degree,NA,NA,English,male,NA,NA,3,1587739318037,1,NA,This is a,1,doberman,NA,NA,warmup1,NA,NA
2230,What do you think your friend is saying is it small relative to?,NA,images/eagle.png,images/bird-parade-basic.png,34,NA,NA,NA,no,2,birds,Linda,NA,NA,yes,Your friend goes ahead of you. You see your friend in the distance:,NA,subj,rescue,eagle,32,eagle,good,NA,higher_degree,big,NA,English,male,29155,You visit your friend who works at an animal shelter and you see the following:,1,1587739318037,NA,It is small relative to other,NA,1,NA,NA,incongruent,custom_main_text1,small,Your friend says: <br/><b>That small eagle is a rescue.</b>
2230,What do you think your friend is saying is it small relative to?,NA,images/chihuahua.png,images/dog-parade-basic.png,34,NA,NA,NA,no,2,dogs1,Linda,NA,NA,yes,Your friend goes ahead of you. You see your friend in the distance:,NA,pred,service animal,chihuahua,32,chihuahua,good,NA,higher_degree,small,NA,English,male,61522,You and your friend are at an animal training ground and you see the following:,2,1587739318037,NA,It is small relative to other,NA,1,NA,NA,congruent,custom_main_text1,small,Your friend says: <br/><b>That service animal is a small chihuahua.</b>
2230,What do you think your friend is saying is it small relative to?,NA,images/bonsai_stick.png,images/tree-parade-basic.png,34,NA,NA,NA,no,2,trees,Linda,NA,NA,yes,Your friend goes ahead of you. You see your friend in the distance:,NA,pred,landmark,bonsai,32,bonsai,good,NA,higher_degree,small,NA,English,male,45227,You and your friend walk to your friend's cabin in a park for the first time. You want to memorize the path and you see the following:,3,1587739318037,NA,It is small relative to other,NA,1,NA,NA,congruent,custom_main_text1,small,Your friend says: <br/><b>That landmark is a small bonsai.</b>
2230,NA,pug,NA,NA,34,warmup/great-dane2.png,pug,This is a,no,2,dogs2,Linda,NA,great dane,yes,Your turn! Please label the pictures below.,NA,NA,NA,NA,32,NA,good,warmup/pug2.png,higher_degree,NA,NA,English,male,NA,NA,1,1587739318037,1,NA,This is a,1,Great Dane,NA,NA,warmup2,NA,NA
2230,NA,dandelion,NA,NA,34,warmup/sunflower2.png,dandelion,This is a,no,2,flowers,Linda,NA,sunflower,yes,Your turn! Please label the pictures below.,NA,NA,NA,NA,32,NA,good,warmup/dandelion2.png,higher_degree,NA,NA,English,male,NA,NA,2,1587739318037,1,NA,This is a,1,sunflower,NA,NA,warmup2,NA,NA
2230,What do you think your friend is saying is it big relative to?,NA,images/great-dane.png,images/dog-parade-basic2.png,34,NA,NA,NA,no,2,dogs2,Linda,NA,NA,yes,Your friend goes ahead of you. You see your friend in the distance:,NA,subj,prize-winner,Great Dane,32,prize-winner,good,NA,higher_degree,big,NA,English,male,20527,You and your friend are at a pet show and you see the following:,1,1587739318037,NA,It is big relative to other,NA,1,NA,NA,congruent,custom_main_text2,big,Your friend says: <br/><b>That big Great Dane is a prize-winner.</b>
2230,What do you think your friend is saying is it small relative to?,NA,images/sunflower.png,images/flower-parade-basic.png,34,NA,NA,NA,no,2,flowers,Linda,NA,NA,yes,Your friend goes ahead of you. You see your friend in the distance:,NA,pred,gift,sunflower,32,sunflower,good,NA,higher_degree,big,NA,English,male,20262,You and your friend are at their garden and you see the following:,2,1587739318037,NA,It is small relative to other,NA,1,NA,NA,incongruent,custom_main_text2,small,Your friend says: <br/><b>That gift is a small sunflower.</b>
2229,<i>What do you think Speaker A meant? </i>,NA,NA,NA,34,NA,NA,NA,No,1,NA,MArgaret,1,NA,yes,NA,"<b> Speaker A: ""The Empire State Building is tall.""</b>",NA,NA,NA,39,buildings,NA,NA,higher_degree,NA,comp_class_warmup,English,female,NA,In the main trials you will be asked to rephrase something a person said. The utterance will contain a word that is <i>relative</i> and your task is to figure out what it is relative to. <br /> <br /> For example: <br />,1,1587739738531,1,The Empire State Building is tall relative to other,NA,1,NA,"buildings, skyscrapers, houses, constructions (choose one)",NA,comp_class_warmup,NA,NA
2229,NA,dandelion,NA,NA,34,warmup/sunflower2.png,dandelion,This is a,No,1,flowers,MArgaret,NA,sunflower,yes,Your turn! Please label the pictures below.,NA,NA,NA,NA,39,NA,NA,warmup/dandelion2.png,higher_degree,NA,NA,English,female,NA,NA,1,1587739738531,1,NA,This is a,1,sunflower,NA,NA,warmup1,NA,NA
2229,NA,humingbird,NA,NA,34,warmup/eagle2.png,hummingbird,This is a,No,1,birds,MArgaret,NA,eagle,yes,Your turn! Please label the pictures below.,NA,NA,NA,NA,39,NA,NA,warmup/hummingbird2.png,higher_degree,NA,NA,English,female,NA,NA,2,1587739738531,1,NA,This is an,1,eagle,NA,NA,warmup1,NA,NA
2229,NA,hummingbird,NA,NA,34,warmup/eagle2.png,hummingbird,This is a,No,1,birds,MArgaret,NA,eagle,yes,Your turn! Please label the pictures below.,NA,NA,NA,NA,39,NA,NA,warmup/hummingbird2.png,higher_degree,NA,NA,English,female,NA,NA,2,1587739738531,2,NA,This is an,1,eagle,NA,NA,warmup1,NA,NA
2229,NA,redwood,NA,NA,34,warmup/bonsai2.png,redwood or sequoia (choose one),This is a,No,1,trees,MArgaret,NA,bonsai,yes,Your turn! Please label the pictures below.,NA,NA,NA,NA,39,NA,NA,warmup/redwood2.png,higher_degree,NA,NA,English,female,NA,NA,3,1587739738531,1,NA,This is a,1,bonsai,NA,NA,warmup1,NA,NA
2229,What do you think your friend is saying is it small relative to?,NA,images/sunflower.png,images/flower-parade-basic.png,34,NA,NA,NA,No,1,flowers,MArgaret,NA,NA,yes,Your friend goes ahead of you. You see your friend in the distance:,NA,subj,gift,sunflower,39,plants,NA,NA,higher_degree,big,NA,English,female,16195,You and your friend are at their garden and you see the following:,1,1587739738531,NA,It is small relative to other,NA,1,NA,NA,incongruent,custom_main_text1,small,Your friend says: <br/><b>That small sunflower is a gift.</b>
2229,What do you think your friend is saying is it small relative to?,NA,images/bonsai_stick.png,images/tree-parade-basic.png,34,NA,NA,NA,No,1,trees,MArgaret,NA,NA,yes,Your friend goes ahead of you. You see your friend in the distance:,NA,pred,landmark,bonsai,39,trees,NA,NA,higher_degree,small,NA,English,female,4723,You and your friend walk to your friend's cabin in a park for the first time. You want to memorize the path and you see the following:,2,1587739738531,NA,It is small relative to other,NA,1,NA,NA,congruent,custom_main_text1,small,Your friend says: <br/><b>That landmark is a small bonsai.</b>
2229,What do you think your friend is saying is it big relative to?,NA,images/eagle.png,images/bird-parade-basic.png,34,NA,NA,NA,No,1,birds,MArgaret,NA,NA,yes,Your friend goes ahead of you. You see your friend in the distance:,NA,subj,rescue,eagle,39,birds,NA,NA,higher_degree,big,NA,English,female,2915,You visit your friend who works at an animal shelter and you see the following:,3,1587739738531,NA,It is big relative to other,NA,1,NA,NA,congruent,custom_main_text1,big,Your friend says: <br/><b>That big eagle is a rescue.</b>
2229,NA,chihuaha,NA,NA,34,warmup/doberman2.png,chihuahua,This is a,No,1,dogs1,MArgaret,NA,doberman,yes,Your turn! Please label the pictures below.,NA,NA,NA,NA,39,NA,NA,warmup/chihuahua2.png,higher_degree,NA,NA,English,female,NA,NA,1,1587739738531,1,NA,This is a,1,doberman,NA,NA,warmup2,NA,NA
2229,NA,chihuahua,NA,NA,34,warmup/doberman2.png,chihuahua,This is a,No,1,dogs1,MArgaret,NA,doberman,yes,Your turn! Please label the pictures below.,NA,NA,NA,NA,39,NA,NA,warmup/chihuahua2.png,higher_degree,NA,NA,English,female,NA,NA,1,1587739738531,2,NA,This is a,1,doberman,NA,NA,warmup2,NA,NA
2229,NA,pug,NA,NA,34,warmup/great-dane2.png,pug,This is a,No,1,dogs2,MArgaret,NA,great dane,yes,Your turn! Please label the pictures below.,NA,NA,NA,NA,39,NA,NA,warmup/pug2.png,higher_degree,NA,NA,English,female,NA,NA,2,1587739738531,1,NA,This is a,1,great dane,NA,NA,warmup2,NA,NA
2229,What do you think your friend is saying is it big relative to?,NA,images/pug.png,images/dog-parade-basic2.png,34,NA,NA,NA,No,1,dogs2,MArgaret,NA,NA,yes,Your friend goes ahead of you. You see your friend in the distance:,NA,pred,prize-winner,pug,39,dogs,NA,NA,higher_degree,small,NA,English,female,20284,You and your friend are at a pet show and you see the following:,1,1587739738531,NA,It is big relative to other,NA,1,NA,NA,incongruent,custom_main_text2,big,Your friend says: <br/><b>That prize-winner is a big pug.</b>
2229,What do you think your friend is saying is it small relative to?,NA,images/chihuahua.png,images/dog-parade-basic.png,34,NA,NA,NA,No,1,dogs1,MArgaret,NA,NA,yes,Your friend goes ahead of you. You see your friend in the distance:,NA,pred,service animal,chihuahua,39,dogs,NA,NA,higher_degree,small,NA,English,female,5661,You and your friend are at an animal training ground and you see the following:,2,1587739738531,NA,It is small relative to other,NA,1,NA,NA,congruent,custom_main_text2,small,Your friend says: <br/><b>That service animal is a small chihuahua.</b>
2228,<i>What do you think Speaker A meant? </i>,NA,NA,NA,34,NA,NA,NA,no,2,NA,elizabeth,1,NA,yes,NA,"<b> Speaker A: ""The Empire State Building is tall.""</b>",NA,NA,NA,28,building,good,NA,graduated_college,NA,comp_class_warmup,English,male,NA,In the main trials you will be asked to rephrase something a person said. The utterance will contain a word that is <i>relative</i> and your task is to figure out what it is relative to. <br /> <br /> For example: <br />,1,1587738942450,1,The Empire State Building is tall relative to other,NA,1,NA,"buildings, skyscrapers, houses, constructions (choose one)",NA,comp_class_warmup,NA,NA
2228,NA,pug,NA,NA,34,warmup/great-dane2.png,pug,This is a,no,2,dogs2,elizabeth,NA,great dane,yes,Your turn! Please label the pictures below.,NA,NA,NA,NA,28,NA,good,warmup/pug2.png,graduated_college,NA,NA,English,male,NA,NA,1,1587738942450,1,NA,This is a,1,great dane,NA,NA,warmup1,NA,NA
2228,NA,hummingbird,NA,NA,34,warmup/eagle2.png,hummingbird,This is a,no,2,birds,elizabeth,NA,eagle,yes,Your turn! Please label the pictures below.,NA,NA,NA,NA,28,NA,good,warmup/hummingbird2.png,graduated_college,NA,NA,English,male,NA,NA,2,1587738942450,1,NA,This is an,1,eagle,NA,NA,warmup1,NA,NA
2228,NA,dandelion,NA,NA,34,warmup/sunflower2.png,dandelion,This is a,no,2,flowers,elizabeth,NA,sunflower,yes,Your turn! Please label the pictures below.,NA,NA,NA,NA,28,NA,good,warmup/dandelion2.png,graduated_college,NA,NA,English,male,NA,NA,3,1587738942450,1,NA,This is a,1,sunflower,NA,NA,warmup1,NA,NA
2228,What do you think your friend is saying is it small relative to?,NA,images/dandelion.png,images/flower-parade-basic.png,34,NA,NA,NA,no,2,flowers,elizabeth,NA,NA,yes,Your friend goes ahead of you. You see your friend in the distance:,NA,subj,gift,dandelion,28,plants,good,NA,graduated_college,small,NA,English,male,11970,You and your friend are at their garden and you see the following:,1,1587738942450,NA,It is small relative to other,NA,1,NA,NA,congruent,custom_main_text1,small,Your friend says: <br/><b>That small dandelion is a gift.</b>
2228,What do you think your friend is saying is it big relative to?,NA,images/hummingbird.png,images/bird-parade-basic.png,34,NA,NA,NA,no,2,birds,elizabeth,NA,NA,yes,Your friend goes ahead of you. You see your friend in the distance:,NA,subj,rescue,hummingbird,28,birds,good,NA,graduated_college,small,NA,English,male,7610,You visit your friend who works at an animal shelter and you see the following:,2,1587738942450,NA,It is big relative to other,NA,1,NA,NA,incongruent,custom_main_text1,big,Your friend says: <br/><b>That big hummingbird is a rescue.</b>
2228,What do you think your friend is saying is it small relative to?,NA,images/pug.png,images/dog-parade-basic2.png,34,NA,NA,NA,no,2,dogs2,elizabeth,NA,NA,yes,Your friend goes ahead of you. You see your friend in the distance:,NA,pred,prize-winner,pug,28,dogs,good,NA,graduated_college,small,NA,English,male,6119,You and your friend are at a pet show and you see the following:,3,1587738942450,NA,It is small relative to other,NA,1,NA,NA,congruent,custom_main_text1,small,Your friend says: <br/><b>That prize-winner is a small pug.</b>
2228,NA,chihuahua,NA,NA,34,warmup/doberman2.png,chihuahua,This is a,no,2,dogs1,elizabeth,NA,doberman,yes,Your turn! Please label the pictures below.,NA,NA,NA,NA,28,NA,good,warmup/chihuahua2.png,graduated_college,NA,NA,English,male,NA,NA,1,1587738942450,1,NA,This is a,1,doberman,NA,NA,warmup2,NA,NA
2228,NA,redwood,NA,NA,34,warmup/bonsai2.png,redwood or sequoia (choose one),This is a,no,2,trees,elizabeth,NA,bonsai,yes,Your turn! Please label the pictures below.,NA,NA,NA,NA,28,NA,good,warmup/redwood2.png,graduated_college,NA,NA,English,male,NA,NA,2,1587738942450,1,NA,This is a,1,bonsai,NA,NA,warmup2,NA,NA
2228,What do you think your friend is saying is it big relative to?,NA,images/doberman.png,images/dog-parade-basic.png,34,NA,NA,NA,no,2,dogs1,elizabeth,NA,NA,yes,Your friend goes ahead of you. You see your friend in the distance:,NA,pred,service animal,doberman,28,dogs,good,NA,graduated_college,big,NA,English,male,13013,You and your friend are at an animal training ground and you see the following:,1,1587738942450,NA,It is big relative to other,NA,1,NA,NA,congruent,custom_main_text2,big,Your friend says: <br/><b>That service animal is a big doberman.</b>
2228,What do you think your friend is saying is it small relative to?,NA,images/redwood_sign.png,images/tree-parade-basic.png,34,NA,NA,NA,no,2,trees,elizabeth,NA,NA,yes,Your friend goes ahead of you. You see your friend in the distance:,NA,pred,landmark,redwood,28,trees,good,NA,graduated_college,big,NA,English,male,6300,You and your friend walk to your friend's cabin in a park for the first time. You want to memorize the path and you see the following:,2,1587738942450,NA,It is small relative to other,NA,1,NA,NA,incongruent,custom_main_text2,small,Your friend says: <br/><b>That landmark is a small redwood.</b>
2227,<i>What do you think Speaker A meant? </i>,NA,NA,NA,34,NA,NA,NA,no,2,NA,margaret,1,NA,yes,NA,"<b> Speaker A: ""The Empire State Building is tall.""</b>",NA,NA,NA,30,skyscraper,no,NA,graduated_college,NA,comp_class_warmup,english,male,NA,In the main trials you will be asked to rephrase something a person said. The utterance will contain a word that is <i>relative</i> and your task is to figure out what it is relative to. <br /> <br /> For example: <br />,1,1587738226022,1,The Empire State Building is tall relative to other,NA,1,NA,"buildings, skyscrapers, houses, constructions (choose one)",NA,comp_class_warmup,NA,NA
2227,NA,humming bird,NA,NA,34,warmup/eagle2.png,hummingbird,This is a,no,2,birds,margaret,NA,eagle,yes,Your turn! Please label the pictures below.,NA,NA,NA,NA,30,NA,no,warmup/hummingbird2.png,graduated_college,NA,NA,english,male,NA,NA,1,1587738226022,1,NA,This is an,1,eagle,NA,NA,warmup1,NA,NA
2227,NA,hummingbird,NA,NA,34,warmup/eagle2.png,hummingbird,This is a,no,2,birds,margaret,NA,eagle,yes,Your turn! Please label the pictures below.,NA,NA,NA,NA,30,NA,no,warmup/hummingbird2.png,graduated_college,NA,NA,english,male,NA,NA,1,1587738226022,2,NA,This is an,1,eagle,NA,NA,warmup1,NA,NA
2227,NA,pug,NA,NA,34,warmup/great-dane2.png,pug,This is a,no,2,dogs2,margaret,NA,great dane,yes,Your turn! Please label the pictures below.,NA,NA,NA,NA,30,NA,no,warmup/pug2.png,graduated_college,NA,NA,english,male,NA,NA,2,1587738226022,1,NA,This is a,1,great dane,NA,NA,warmup1,NA,NA
2227,NA,dandelion,NA,NA,34,warmup/sunflower2.png,dandelion,This is a,no,2,flowers,margaret,NA,sunflower,yes,Your turn! Please label the pictures below.,NA,NA,NA,NA,30,NA,no,warmup/dandelion2.png,graduated_college,NA,NA,english,male,NA,NA,3,1587738226022,1,NA,This is a,1,sunflower,NA,NA,warmup1,NA,NA
2227,What do you think your friend is saying is it small relative to?,NA,images/sunflower.png,images/flower-parade-basic.png,34,NA,NA,NA,no,2,flowers,margaret,NA,NA,yes,Your friend goes ahead of you. You see your friend in the distance:,NA,subj,gift,sunflower,30,big,no,NA,graduated_college,big,NA,english,male,27157,You and your friend are at their garden and you see the following:,1,1587738226022,NA,It is small relative to other,NA,1,NA,NA,incongruent,custom_main_text1,small,Your friend says: <br/><b>That small sunflower is a gift.</b>
2227,What do you think your friend is saying is it big relative to?,NA,images/great-dane.png,images/dog-parade-basic2.png,34,NA,NA,NA,no,2,dogs2,margaret,NA,NA,yes,Your friend goes ahead of you. You see your friend in the distance:,NA,subj,prize-winner,Great Dane,30,powerful,no,NA,graduated_college,big,NA,english,male,84555,You and your friend are at a pet show and you see the following:,2,1587738226022,NA,It is big relative to other,NA,1,NA,NA,congruent,custom_main_text1,big,Your friend says: <br/><b>That big Great Dane is a prize-winner.</b>
2227,What do you think your friend is saying is it big relative to?,NA,images/hummingbird.png,images/bird-parade-basic.png,34,NA,NA,NA,no,2,birds,margaret,NA,NA,yes,Your friend goes ahead of you. You see your friend in the distance:,NA,pred,rescue,hummingbird,30,Trochilidae,no,NA,graduated_college,small,NA,english,male,87597,You visit your friend who works at an animal shelter and you see the following:,3,1587738226022,NA,It is big relative to other,NA,1,NA,NA,incongruent,custom_main_text1,big,Your friend says: <br/><b>That rescue is a big hummingbird.</b>
2227,NA,redwood,NA,NA,34,warmup/bonsai2.png,redwood or sequoia (choose one),This is a,no,2,trees,margaret,NA,bonsai,yes,Your turn! Please label the pictures below.,NA,NA,NA,NA,30,NA,no,warmup/redwood2.png,graduated_college,NA,NA,english,male,NA,NA,1,1587738226022,1,NA,This is a,1,bonsai,NA,NA,warmup2,NA,NA
2227,NA,chihuahua,NA,NA,34,warmup/doberman2.png,chihuahua,This is a,no,2,dogs1,margaret,NA,doberman,yes,Your turn! Please label the pictures below.,NA,NA,NA,NA,30,NA,no,warmup/chihuahua2.png,graduated_college,NA,NA,english,male,NA,NA,2,1587738226022,1,NA,This is a,1,doberman,NA,NA,warmup2,NA,NA
2227,What do you think your friend is saying is it small relative to?,NA,images/bonsai_stick.png,images/tree-parade-basic.png,34,NA,NA,NA,no,2,trees,margaret,NA,NA,yes,Your friend goes ahead of you. You see your friend in the distance:,NA,pred,landmark,bonsai,30,tall tree,no,NA,graduated_college,small,NA,english,male,96620,You and your friend walk to your friend's cabin in a park for the first time. You want to memorize the path and you see the following:,1,1587738226022,NA,It is small relative to other,NA,1,NA,NA,congruent,custom_main_text2,small,Your friend says: <br/><b>That landmark is a small bonsai.</b>
2227,What do you think your friend is saying is it big relative to?,NA,images/chihuahua.png,images/dog-parade-basic.png,34,NA,NA,NA,no,2,dogs1,margaret,NA,NA,yes,Your friend goes ahead of you. You see your friend in the distance:,NA,subj,service animal,chihuahua,30,small,no,NA,graduated_college,small,NA,english,male,22668,You and your friend are at an animal training ground and you see the following:,2,1587738226022,NA,It is big relative to other,NA,1,NA,NA,incongruent,custom_main_text2,big,Your friend says: <br/><b>That big chihuahua is a service animal.</b>
2226,<i>What do you think Speaker A meant? </i>,NA,NA,NA,34,NA,NA,NA,no problems,NA,NA,Elizabeth,1,NA,NA,NA,"<b> Speaker A: ""The Empire State Building is tall.""</b>",NA,NA,NA,NA,buildings,no comments,NA,NA,NA,comp_class_warmup,NA,NA,NA,In the main trials you will be asked to rephrase something a person said. The utterance will contain a word that is <i>relative</i> and your task is to figure out what it is relative to. <br /> <br /> For example: <br />,1,1587738844523,1,The Empire State Building is tall relative to other,NA,NA,NA,"buildings, skyscrapers, houses, constructions (choose one)",NA,comp_class_warmup,NA,NA
2226,NA,pug,NA,NA,34,warmup/great-dane2.png,pug,This is a,no problems,NA,dogs2,Elizabeth,NA,great dane,NA,Your turn! Please label the pictures below.,NA,NA,NA,NA,NA,NA,no comments,warmup/pug2.png,NA,NA,NA,NA,NA,NA,NA,1,1587738844523,1,NA,This is a,NA,great dane,NA,NA,warmup1,NA,NA
2226,NA,dandelion,NA,NA,34,warmup/sunflower2.png,dandelion,This is a,no problems,NA,flowers,Elizabeth,NA,sunflower,NA,Your turn! Please label the pictures below.,NA,NA,NA,NA,NA,NA,no comments,warmup/dandelion2.png,NA,NA,NA,NA,NA,NA,NA,2,1587738844523,1,NA,This is a,NA,sunflower\nsunflower,NA,NA,warmup1,NA,NA
2226,NA,dandelion,NA,NA,34,warmup/sunflower2.png,dandelion,This is a,no problems,NA,flowers,Elizabeth,NA,sunflower,NA,Your turn! Please label the pictures below.,NA,NA,NA,NA,NA,NA,no comments,warmup/dandelion2.png,NA,NA,NA,NA,NA,NA,NA,2,1587738844523,2,NA,This is a,NA,sunflower\nsunflower,NA,NA,warmup1,NA,NA
2226,NA,dandelion,NA,NA,34,warmup/sunflower2.png,dandelion,This is a,no problems,NA,flowers,Elizabeth,NA,sunflower,NA,Your turn! Please label the pictures below.,NA,NA,NA,NA,NA,NA,no comments,warmup/dandelion2.png,NA,NA,NA,NA,NA,NA,NA,2,1587738844523,3,NA,This is a,NA,sunflower,NA,NA,warmup1,NA,NA
2226,NA,hummingbird,NA,NA,34,warmup/eagle2.png,hummingbird,This is a,no problems,NA,birds,Elizabeth,NA,eagle,NA,Your turn! Please label the pictures below.,NA,NA,NA,NA,NA,NA,no comments,warmup/hummingbird2.png,NA,NA,NA,NA,NA,NA,NA,3,1587738844523,1,NA,This is an,NA,eagle,NA,NA,warmup1,NA,NA
2226,What do you think your friend is saying is it small relative to?,NA,images/hummingbird.png,images/bird-parade-basic.png,34,NA,NA,NA,no problems,NA,birds,Elizabeth,NA,NA,NA,Your friend goes ahead of you. You see your friend in the distance:,NA,subj,rescue,hummingbird,NA,the other birds,no comments,NA,NA,small,NA,NA,NA,33322,You visit your friend who works at an animal shelter and you see the following:,1,1587738844523,NA,It is small relative to other,NA,NA,NA,NA,congruent,custom_main_text1,small,Your friend says: <br/><b>That small hummingbird is a rescue.</b>
2226,What do you think your friend is saying is it big relative to?,NA,images/dandelion.png,images/flower-parade-basic.png,34,NA,NA,NA,no problems,NA,flowers,Elizabeth,NA,NA,NA,Your friend goes ahead of you. You see your friend in the distance:,NA,subj,gift,dandelion,NA,dandelions,no comments,NA,NA,small,NA,NA,NA,22101,You and your friend are at their garden and you see the following:,2,1587738844523,NA,It is big relative to other,NA,NA,NA,NA,incongruent,custom_main_text1,big,Your friend says: <br/><b>That big dandelion is a gift.</b>
2226,What do you think your friend is saying is it big relative to?,NA,images/pug.png,images/dog-parade-basic2.png,34,NA,NA,NA,no problems,NA,dogs2,Elizabeth,NA,NA,NA,Your friend goes ahead of you. You see your friend in the distance:,NA,pred,prize-winner,pug,NA,other pugs,no comments,NA,NA,small,NA,NA,NA,14967,You and your friend are at a pet show and you see the following:,3,1587738844523,NA,It is big relative to other,NA,NA,NA,NA,incongruent,custom_main_text1,big,Your friend says: <br/><b>That prize-winner is a big pug.</b>
2226,NA,chihuahua`,NA,NA,34,warmup/doberman2.png,chihuahua,This is a,no problems,NA,dogs1,Elizabeth,NA,doberman,NA,Your turn! Please label the pictures below.,NA,NA,NA,NA,NA,NA,no comments,warmup/chihuahua2.png,NA,NA,NA,NA,NA,NA,NA,1,1587738844523,1,NA,This is a,NA,doberman,NA,NA,warmup2,NA,NA
2226,NA,chihuahua,NA,NA,34,warmup/doberman2.png,chihuahua,This is a,no problems,NA,dogs1,Elizabeth,NA,doberman,NA,Your turn! Please label the pictures below.,NA,NA,NA,NA,NA,NA,no comments,warmup/chihuahua2.png,NA,NA,NA,NA,NA,NA,NA,1,1587738844523,2,NA,This is a,NA,doberman,NA,NA,warmup2,NA,NA
2226,NA,redwood,NA,NA,34,warmup/bonsai2.png,redwood or sequoia (choose one),This is a,no problems,NA,trees,Elizabeth,NA,bonsai,NA,Your turn! Please label the pictures below.,NA,NA,NA,NA,NA,NA,no comments,warmup/redwood2.png,NA,NA,NA,NA,NA,NA,NA,2,1587738844523,1,NA,This is a,NA,bonsai,NA,NA,warmup2,NA,NA
2226,What do you think your friend is saying is it small relative to?,NA,images/doberman.png,images/dog-parade-basic.png,34,NA,NA,NA,no problems,NA,dogs1,Elizabeth,NA,NA,NA,Your friend goes ahead of you. You see your friend in the distance:,NA,pred,service animal,doberman,NA,dobermans,no comments,NA,NA,big,NA,NA,NA,14389,You and your friend are at an animal training ground and you see the following:,1,1587738844523,NA,It is small relative to other,NA,NA,NA,NA,incongruent,custom_main_text2,small,Your friend says: <br/><b>That service animal is a small doberman.</b>
2226,What do you think your friend is saying is it big relative to?,NA,images/redwood_sign.png,images/tree-parade-basic.png,34,NA,NA,NA,no problems,NA,trees,Elizabeth,NA,NA,NA,Your friend goes ahead of you. You see your friend in the distance:,NA,pred,landmark,redwood,NA,trees,no comments,NA,NA,big,NA,NA,NA,10633,You and your friend walk to your friend's cabin in a park for the first time. You want to memorize the path and you see the following:,2,1587738844523,NA,It is big relative to other,NA,NA,NA,NA,congruent,custom_main_text2,big,Your friend says: <br/><b>That landmark is a big redwood.</b>
2225,<i>What do you think Speaker A meant? </i>,NA,NA,NA,34,NA,NA,NA,NA,2,NA,margaret,1,NA,NA,NA,"<b> Speaker A: ""The Empire State Building is tall.""</b>",NA,NA,NA,NA,buildings,NA,NA,graduated_college,NA,comp_class_warmup,English,NA,NA,In the main trials you will be asked to rephrase something a person said. The utterance will contain a word that is <i>relative</i> and your task is to figure out what it is relative to. <br /> <br /> For example: <br />,1,1587738568547,1,The Empire State Building is tall relative to other,NA,1,NA,"buildings, skyscrapers, houses, constructions (choose one)",NA,comp_class_warmup,NA,NA
2225,NA,hummingbird,NA,NA,34,warmup/eagle2.png,hummingbird,This is a,NA,2,birds,margaret,NA,eagle,NA,Your turn! Please label the pictures below.,NA,NA,NA,NA,NA,NA,NA,warmup/hummingbird2.png,graduated_college,NA,NA,English,NA,NA,NA,1,1587738568547,1,NA,This is an,1,eagle,NA,NA,warmup1,NA,NA
2225,NA,dandelion,NA,NA,34,warmup/sunflower2.png,dandelion,This is a,NA,2,flowers,margaret,NA,sunflower,NA,Your turn! Please label the pictures below.,NA,NA,NA,NA,NA,NA,NA,warmup/dandelion2.png,graduated_college,NA,NA,English,NA,NA,NA,2,1587738568547,1,NA,This is a,1,sunflower,NA,NA,warmup1,NA,NA
2225,NA,pug,NA,NA,34,warmup/great-dane2.png,pug,This is a,NA,2,dogs2,margaret,NA,great dane,NA,Your turn! Please label the pictures below.,NA,NA,NA,NA,NA,NA,NA,warmup/pug2.png,graduated_college,NA,NA,English,NA,NA,NA,3,1587738568547,1,NA,This is a,1,great dane,NA,NA,warmup1,NA,NA
2225,What do you think your friend is saying is it big relative to?,NA,images/dandelion.png,images/flower-parade-basic.png,34,NA,NA,NA,NA,2,flowers,margaret,NA,NA,NA,Your friend goes ahead of you. You see your friend in the distance:,NA,subj,gift,dandelion,NA,flowers,NA,NA,graduated_college,small,NA,English,NA,22505,You and your friend are at their garden and you see the following:,1,1587738568547,NA,It is big relative to other,NA,1,NA,NA,incongruent,custom_main_text1,big,Your friend says: <br/><b>That big dandelion is a gift.</b>
2225,What do you think your friend is saying is it big relative to?,NA,images/eagle.png,images/bird-parade-basic.png,34,NA,NA,NA,NA,2,birds,margaret,NA,NA,NA,Your friend goes ahead of you. You see your friend in the distance:,NA,pred,rescue,eagle,NA,birds,NA,NA,graduated_college,big,NA,English,NA,18125,You visit your friend who works at an animal shelter and you see the following:,2,1587738568547,NA,It is big relative to other,NA,1,NA,NA,congruent,custom_main_text1,big,Your friend says: <br/><b>That rescue is a big eagle.</b>
2225,What do you think your friend is saying is it big relative to?,NA,images/great-dane.png,images/dog-parade-basic2.png,34,NA,NA,NA,NA,2,dogs2,margaret,NA,NA,NA,Your friend goes ahead of you. You see your friend in the distance:,NA,pred,prize-winner,Great Dane,NA,canines,NA,NA,graduated_college,big,NA,English,NA,34308,You and your friend are at a pet show and you see the following:,3,1587738568547,NA,It is big relative to other,NA,1,NA,NA,congruent,custom_main_text1,big,Your friend says: <br/><b>That prize-winner is a big Great Dane.</b>
2225,NA,chihuahua,NA,NA,34,warmup/doberman2.png,chihuahua,This is a,NA,2,dogs1,margaret,NA,doberman,NA,Your turn! Please label the pictures below.,NA,NA,NA,NA,NA,NA,NA,warmup/chihuahua2.png,graduated_college,NA,NA,English,NA,NA,NA,1,1587738568547,1,NA,This is a,1,doberman,NA,NA,warmup2,NA,NA
2225,NA,redwood,NA,NA,34,warmup/bonsai2.png,redwood or sequoia (choose one),This is a,NA,2,trees,margaret,NA,bonsai,NA,Your turn! Please label the pictures below.,NA,NA,NA,NA,NA,NA,NA,warmup/redwood2.png,graduated_college,NA,NA,English,NA,NA,NA,2,1587738568547,1,NA,This is a,1,bonsai,NA,NA,warmup2,NA,NA
2225,What do you think your friend is saying is it small relative to?,NA,images/chihuahua.png,images/dog-parade-basic.png,34,NA,NA,NA,NA,2,dogs1,margaret,NA,NA,NA,Your friend goes ahead of you. You see your friend in the distance:,NA,subj,service animal,chihuahua,NA,dogs,NA,NA,graduated_college,small,NA,English,NA,10247,You and your friend are at an animal training ground and you see the following:,1,1587738568547,NA,It is small relative to other,NA,1,NA,NA,congruent,custom_main_text2,small,Your friend says: <br/><b>That small chihuahua is a service animal.</b>
2225,What do you think your friend is saying is it big relative to?,NA,images/bonsai_stick.png,images/tree-parade-basic.png,34,NA,NA,NA,NA,2,trees,margaret,NA,NA,NA,Your friend goes ahead of you. You see your friend in the distance:,NA,pred,landmark,bonsai,NA,trees,NA,NA,graduated_college,small,NA,English,NA,6092,You and your friend walk to your friend's cabin in a park for the first time. You want to memorize the path and you see the following:,2,1587738568547,NA,It is big relative to other,NA,1,NA,NA,incongruent,custom_main_text2,big,Your friend says: <br/><b>That landmark is a big bonsai.</b>
2224,<i>What do you think Speaker A meant? </i>,NA,NA,NA,34,NA,NA,NA,NO,NA,NA,margaret,1,NA,NA,NA,"<b> Speaker A: ""The Empire State Building is tall.""</b>",NA,NA,NA,NA,the empire state building is tall,good experience,NA,NA,NA,comp_class_warmup,NA,NA,NA,In the main trials you will be asked to rephrase something a person said. The utterance will contain a word that is <i>relative</i> and your task is to figure out what it is relative to. <br /> <br /> For example: <br />,1,1587738411528,1,The Empire State Building is tall relative to other,NA,1.03,NA,"buildings, skyscrapers, houses, constructions (choose one)",NA,comp_class_warmup,NA,NA
2224,<i>What do you think Speaker A meant? </i>,NA,NA,NA,34,NA,NA,NA,NO,NA,NA,margaret,1,NA,NA,NA,"<b> Speaker A: ""The Empire State Building is tall.""</b>",NA,NA,NA,NA,constructions,good experience,NA,NA,NA,comp_class_warmup,NA,NA,NA,In the main trials you will be asked to rephrase something a person said. The utterance will contain a word that is <i>relative</i> and your task is to figure out what it is relative to. <br /> <br /> For example: <br />,1,1587738411528,2,The Empire State Building is tall relative to other,NA,1.03,NA,"buildings, skyscrapers, houses, constructions (choose one)",NA,comp_class_warmup,NA,NA
2224,NA,hammingbird,NA,NA,34,warmup/eagle2.png,hummingbird,This is a,NO,NA,birds,margaret,NA,eagle,NA,Your turn! Please label the pictures below.,NA,NA,NA,NA,NA,NA,good experience,warmup/hummingbird2.png,NA,NA,NA,NA,NA,NA,NA,1,1587738411528,1,NA,This is an,1.03,eagle,NA,NA,warmup1,NA,NA
2224,NA,hummingbird,NA,NA,34,warmup/eagle2.png,hummingbird,This is a,NO,NA,birds,margaret,NA,eagle,NA,Your turn! Please label the pictures below.,NA,NA,NA,NA,NA,NA,good experience,warmup/hummingbird2.png,NA,NA,NA,NA,NA,NA,NA,1,1587738411528,2,NA,This is an,1.03,eagle,NA,NA,warmup1,NA,NA
2224,NA,dandelion,NA,NA,34,warmup/sunflower2.png,dandelion,This is a,NO,NA,flowers,margaret,NA,sunflower,NA,Your turn! Please label the pictures below.,NA,NA,NA,NA,NA,NA,good experience,warmup/dandelion2.png,NA,NA,NA,NA,NA,NA,NA,2,1587738411528,1,NA,This is a,1.03,sunflower,NA,NA,warmup1,NA,NA
2224,NA,chihuahua,NA,NA,34,warmup/doberman2.png,chihuahua,This is a,NO,NA,dogs1,margaret,NA,doberman,NA,Your turn! Please label the pictures below.,NA,NA,NA,NA,NA,NA,good experience,warmup/chihuahua2.png,NA,NA,NA,NA,NA,NA,NA,3,1587738411528,1,NA,This is a,1.03,doberman,NA,NA,warmup1,NA,NA
2224,What do you think your friend is saying is it small relative to?,NA,images/eagle.png,images/bird-parade-basic.png,34,NA,NA,NA,NO,NA,birds,margaret,NA,NA,NA,Your friend goes ahead of you. You see your friend in the distance:,NA,pred,rescue,eagle,NA,eagle,good experience,NA,NA,big,NA,NA,NA,11237,You visit your friend who works at an animal shelter and you see the following:,1,1587738411528,NA,It is small relative to other,NA,1.03,NA,NA,incongruent,custom_main_text1,small,Your friend says: <br/><b>That rescue is a small eagle.</b>
2224,What do you think your friend is saying is it big relative to?,NA,images/sunflower.png,images/flower-parade-basic.png,34,NA,NA,NA,NO,NA,flowers,margaret,NA,NA,NA,Your friend goes ahead of you. You see your friend in the distance:,NA,subj,gift,sunflower,NA,sunflower,good experience,NA,NA,big,NA,NA,NA,11322,You and your friend are at their garden and you see the following:,2,1587738411528,NA,It is big relative to other,NA,1.03,NA,NA,congruent,custom_main_text1,big,Your friend says: <br/><b>That big sunflower is a gift.</b>
2224,What do you think your friend is saying is it small relative to?,NA,images/chihuahua.png,images/dog-parade-basic.png,34,NA,NA,NA,NO,NA,dogs1,margaret,NA,NA,NA,Your friend goes ahead of you. You see your friend in the distance:,NA,pred,service animal,chihuahua,NA,chihuahua,good experience,NA,NA,small,NA,NA,NA,15031,You and your friend are at an animal training ground and you see the following:,3,1587738411528,NA,It is small relative to other,NA,1.03,NA,NA,congruent,custom_main_text1,small,Your friend says: <br/><b>That service animal is a small chihuahua.</b>
2224,NA,redwood,NA,NA,34,warmup/bonsai2.png,redwood or sequoia (choose one),This is a,NO,NA,trees,margaret,NA,bonsai,NA,Your turn! Please label the pictures below.,NA,NA,NA,NA,NA,NA,good experience,warmup/redwood2.png,NA,NA,NA,NA,NA,NA,NA,1,1587738411528,1,NA,This is a,1.03,bonsai,NA,NA,warmup2,NA,NA
2224,NA,pug,NA,NA,34,warmup/great-dane2.png,pug,This is a,NO,NA,dogs2,margaret,NA,great dane,NA,Your turn! Please label the pictures below.,NA,NA,NA,NA,NA,NA,good experience,warmup/pug2.png,NA,NA,NA,NA,NA,NA,NA,2,1587738411528,1,NA,This is a,1.03,great dane,NA,NA,warmup2,NA,NA
2224,What do you think your friend is saying is it small relative to?,NA,images/pug.png,images/dog-parade-basic2.png,34,NA,NA,NA,NO,NA,dogs2,margaret,NA,NA,NA,Your friend goes ahead of you. You see your friend in the distance:,NA,pred,prize-winner,pug,NA,pug,good experience,NA,NA,small,NA,NA,NA,7044,You and your friend are at a pet show and you see the following:,1,1587738411528,NA,It is small relative to other,NA,1.03,NA,NA,congruent,custom_main_text2,small,Your friend says: <br/><b>That prize-winner is a small pug.</b>
2224,What do you think your friend is saying is it small relative to?,NA,images/redwood_sign.png,images/tree-parade-basic.png,34,NA,NA,NA,NO,NA,trees,margaret,NA,NA,NA,Your friend goes ahead of you. You see your friend in the distance:,NA,subj,landmark,redwood,NA,redwood,good experience,NA,NA,big,NA,NA,NA,10220,You and your friend walk to your friend's cabin in a park for the first time. You want to memorize the path and you see the following:,2,1587738411528,NA,It is small relative to other,NA,1.03,NA,NA,incongruent,custom_main_text2,small,Your friend says: <br/><b>That small redwood is a landmark.</b>
2223,<i>What do you think Speaker A meant? </i>,NA,NA,NA,34,NA,NA,NA,NA,1,NA,Jessica,1,NA,yes,NA,"<b> Speaker A: ""The Empire State Building is tall.""</b>",NA,NA,NA,31,buildings you normally see.,NA,NA,graduated_high_school,NA,comp_class_warmup,English,male,NA,In the main trials you will be asked to rephrase something a person said. The utterance will contain a word that is <i>relative</i> and your task is to figure out what it is relative to. <br /> <br /> For example: <br />,1,1587738297536,1,The Empire State Building is tall relative to other,NA,1,NA,"buildings, skyscrapers, houses, constructions (choose one)",NA,comp_class_warmup,NA,NA
2223,<i>What do you think Speaker A meant? </i>,NA,NA,NA,34,NA,NA,NA,NA,1,NA,Jessica,1,NA,yes,NA,"<b> Speaker A: ""The Empire State Building is tall.""</b>",NA,NA,NA,31,buildings,NA,NA,graduated_high_school,NA,comp_class_warmup,English,male,NA,In the main trials you will be asked to rephrase something a person said. The utterance will contain a word that is <i>relative</i> and your task is to figure out what it is relative to. <br /> <br /> For example: <br />,1,1587738297536,2,The Empire State Building is tall relative to other,NA,1,NA,"buildings, skyscrapers, houses, constructions (choose one)",NA,comp_class_warmup,NA,NA
2223,NA,hummingbird,NA,NA,34,warmup/eagle2.png,hummingbird,This is a,NA,1,birds,Jessica,NA,eagle,yes,Your turn! Please label the pictures below.,NA,NA,NA,NA,31,NA,NA,warmup/hummingbird2.png,graduated_high_school,NA,NA,English,male,NA,NA,1,1587738297536,1,NA,This is an,1,eagle,NA,NA,warmup1,NA,NA
2223,NA,pug,NA,NA,34,warmup/great-dane2.png,pug,This is a,NA,1,dogs2,Jessica,NA,great dane,yes,Your turn! Please label the pictures below.,NA,NA,NA,NA,31,NA,NA,warmup/pug2.png,graduated_high_school,NA,NA,English,male,NA,NA,2,1587738297536,1,NA,This is a,1,great dane,NA,NA,warmup1,NA,NA
2223,NA,redwood,NA,NA,34,warmup/bonsai2.png,redwood or sequoia (choose one),This is a,NA,1,trees,Jessica,NA,bonsai,yes,Your turn! Please label the pictures below.,NA,NA,NA,NA,31,NA,NA,warmup/redwood2.png,graduated_high_school,NA,NA,English,male,NA,NA,3,1587738297536,1,NA,This is a,1,bonsai,NA,NA,warmup1,NA,NA
2223,What do you think your friend is saying is it small relative to?,NA,images/pug.png,images/dog-parade-basic2.png,34,NA,NA,NA,NA,1,dogs2,Jessica,NA,NA,yes,Your friend goes ahead of you. You see your friend in the distance:,NA,subj,prize-winner,pug,31,dogs,NA,NA,graduated_high_school,small,NA,English,male,14278,You and your friend are at a pet show and you see the following:,1,1587738297536,NA,It is small relative to other,NA,1,NA,NA,congruent,custom_main_text1,small,Your friend says: <br/><b>That small pug is a prize-winner.</b>
2223,What do you think your friend is saying is it big relative to?,NA,images/eagle.png,images/bird-parade-basic.png,34,NA,NA,NA,NA,1,birds,Jessica,NA,NA,yes,Your friend goes ahead of you. You see your friend in the distance:,NA,pred,rescue,eagle,31,birds,NA,NA,graduated_high_school,big,NA,English,male,6900,You visit your friend who works at an animal shelter and you see the following:,2,1587738297536,NA,It is big relative to other,NA,1,NA,NA,congruent,custom_main_text1,big,Your friend says: <br/><b>That rescue is a big eagle.</b>
2223,What do you think your friend is saying is it big relative to?,NA,images/bonsai_stick.png,images/tree-parade-basic.png,34,NA,NA,NA,NA,1,trees,Jessica,NA,NA,yes,Your friend goes ahead of you. You see your friend in the distance:,NA,subj,landmark,bonsai,31,bonsais,NA,NA,graduated_high_school,small,NA,English,male,11270,You and your friend walk to your friend's cabin in a park for the first time. You want to memorize the path and you see the following:,3,1587738297536,NA,It is big relative to other,NA,1,NA,NA,incongruent,custom_main_text1,big,Your friend says: <br/><b>That big bonsai is a landmark.</b>
2223,NA,chihuahua,NA,NA,34,warmup/doberman2.png,chihuahua,This is a,NA,1,dogs1,Jessica,NA,doberman,yes,Your turn! Please label the pictures below.,NA,NA,NA,NA,31,NA,NA,warmup/chihuahua2.png,graduated_high_school,NA,NA,English,male,NA,NA,1,1587738297536,1,NA,This is a,1,dobermen,NA,NA,warmup2,NA,NA
2223,NA,chihuahua,NA,NA,34,warmup/doberman2.png,chihuahua,This is a,NA,1,dogs1,Jessica,NA,doberman,yes,Your turn! Please label the pictures below.,NA,NA,NA,NA,31,NA,NA,warmup/chihuahua2.png,graduated_high_school,NA,NA,English,male,NA,NA,1,1587738297536,2,NA,This is a,1,doberman,NA,NA,warmup2,NA,NA
2223,NA,dandelion,NA,NA,34,warmup/sunflower2.png,dandelion,This is a,NA,1,flowers,Jessica,NA,sunflower,yes,Your turn! Please label the pictures below.,NA,NA,NA,NA,31,NA,NA,warmup/dandelion2.png,graduated_high_school,NA,NA,English,male,NA,NA,2,1587738297536,1,NA,This is a,1,sunflower,NA,NA,warmup2,NA,NA
2223,What do you think your friend is saying is it small relative to?,NA,images/dandelion.png,images/flower-parade-basic.png,34,NA,NA,NA,NA,1,flowers,Jessica,NA,NA,yes,Your friend goes ahead of you. You see your friend in the distance:,NA,pred,gift,dandelion,31,flowers,NA,NA,graduated_high_school,small,NA,English,male,14301,You and your friend are at their garden and you see the following:,1,1587738297536,NA,It is small relative to other,NA,1,NA,NA,congruent,custom_main_text2,small,Your friend says: <br/><b>That gift is a small dandelion.</b>
2223,What do you think your friend is saying is it small relative to?,NA,images/doberman.png,images/dog-parade-basic.png,34,NA,NA,NA,NA,1,dogs1,Jessica,NA,NA,yes,Your friend goes ahead of you. You see your friend in the distance:,NA,pred,service animal,doberman,31,dobermans,NA,NA,graduated_high_school,big,NA,English,male,5970,You and your friend are at an animal training ground and you see the following:,2,1587738297536,NA,It is small relative to other,NA,1,NA,NA,incongruent,custom_main_text2,small,Your friend says: <br/><b>That service animal is a small doberman.</b>
2222,<i>What do you think Speaker A meant? </i>,NA,NA,NA,34,NA,NA,NA,none,2,NA,susan,1,NA,yes,NA,"<b> Speaker A: ""The Empire State Building is tall.""</b>",NA,NA,NA,30,buildings,n/a,NA,some_college,NA,comp_class_warmup,English,male,NA,In the main trials you will be asked to rephrase something a person said. The utterance will contain a word that is <i>relative</i> and your task is to figure out what it is relative to. <br /> <br /> For example: <br />,1,1587738096074,1,The Empire State Building is tall relative to other,NA,1,NA,"buildings, skyscrapers, houses, constructions (choose one)",NA,comp_class_warmup,NA,NA
2222,NA,Pug,NA,NA,34,warmup/great-dane2.png,pug,This is a,none,2,dogs2,susan,NA,great dane,yes,Your turn! Please label the pictures below.,NA,NA,NA,NA,30,NA,n/a,warmup/pug2.png,some_college,NA,NA,English,male,NA,NA,1,1587738096074,1,NA,This is a,1,Great Dane.,NA,NA,warmup1,NA,NA
2222,NA,pug,NA,NA,34,warmup/great-dane2.png,pug,This is a,none,2,dogs2,susan,NA,great dane,yes,Your turn! Please label the pictures below.,NA,NA,NA,NA,30,NA,n/a,warmup/pug2.png,some_college,NA,NA,English,male,NA,NA,1,1587738096074,2,NA,This is a,1,great dane,NA,NA,warmup1,NA,NA
2222,NA,hummingbird,NA,NA,34,warmup/eagle2.png,hummingbird,This is a,none,2,birds,susan,NA,eagle,yes,Your turn! Please label the pictures below.,NA,NA,NA,NA,30,NA,n/a,warmup/hummingbird2.png,some_college,NA,NA,English,male,NA,NA,2,1587738096074,1,NA,This is an,1,eagle,NA,NA,warmup1,NA,NA
2222,NA,redwood,NA,NA,34,warmup/bonsai2.png,redwood or sequoia (choose one),This is a,none,2,trees,susan,NA,bonsai,yes,Your turn! Please label the pictures below.,NA,NA,NA,NA,30,NA,n/a,warmup/redwood2.png,some_college,NA,NA,English,male,NA,NA,3,1587738096074,1,NA,This is a,1,bonsai,NA,NA,warmup1,NA,NA
2222,What do you think your friend is saying is it big relative to?,NA,images/pug.png,images/dog-parade-basic2.png,34,NA,NA,NA,none,2,dogs2,susan,NA,NA,yes,Your friend goes ahead of you. You see your friend in the distance:,NA,pred,prize-winner,pug,30,dogs,n/a,NA,some_college,small,NA,English,male,40912,You and your friend are at a pet show and you see the following:,1,1587738096074,NA,It is big relative to other,NA,1,NA,NA,incongruent,custom_main_text1,big,Your friend says: <br/><b>That prize-winner is a big pug.</b>
2222,What do you think your friend is saying is it big relative to?,NA,images/redwood_sign.png,images/tree-parade-basic.png,34,NA,NA,NA,none,2,trees,susan,NA,NA,yes,Your friend goes ahead of you. You see your friend in the distance:,NA,pred,landmark,redwood,30,trees,n/a,NA,some_college,big,NA,English,male,15027,You and your friend walk to your friend's cabin in a park for the first time. You want to memorize the path and you see the following:,2,1587738096074,NA,It is big relative to other,NA,1,NA,NA,congruent,custom_main_text1,big,Your friend says: <br/><b>That landmark is a big redwood.</b>
2222,What do you think your friend is saying is it big relative to?,NA,images/eagle.png,images/bird-parade-basic.png,34,NA,NA,NA,none,2,birds,susan,NA,NA,yes,Your friend goes ahead of you. You see your friend in the distance:,NA,subj,rescue,eagle,30,eagles,n/a,NA,some_college,big,NA,English,male,30739,You visit your friend who works at an animal shelter and you see the following:,3,1587738096074,NA,It is big relative to other,NA,1,NA,NA,congruent,custom_main_text1,big,Your friend says: <br/><b>That big eagle is a rescue.</b>
2222,NA,chihuahua,NA,NA,34,warmup/doberman2.png,chihuahua,This is a,none,2,dogs1,susan,NA,doberman,yes,Your turn! Please label the pictures below.,NA,NA,NA,NA,30,NA,n/a,warmup/chihuahua2.png,some_college,NA,NA,English,male,NA,NA,1,1587738096074,1,NA,This is a,1,doberman,NA,NA,warmup2,NA,NA
2222,NA,dandelion,NA,NA,34,warmup/sunflower2.png,dandelion,This is a,none,2,flowers,susan,NA,sunflower,yes,Your turn! Please label the pictures below.,NA,NA,NA,NA,30,NA,n/a,warmup/dandelion2.png,some_college,NA,NA,English,male,NA,NA,2,1587738096074,1,NA,This is a,1,sunflower,NA,NA,warmup2,NA,NA
2222,What do you think your friend is saying is it small relative to?,NA,images/dandelion.png,images/flower-parade-basic.png,34,NA,NA,NA,none,2,flowers,susan,NA,NA,yes,Your friend goes ahead of you. You see your friend in the distance:,NA,pred,gift,dandelion,30,flowers,n/a,NA,some_college,small,NA,English,male,21807,You and your friend are at their garden and you see the following:,1,1587738096074,NA,It is small relative to other,NA,1,NA,NA,congruent,custom_main_text2,small,Your friend says: <br/><b>That gift is a small dandelion.</b>
2222,What do you think your friend is saying is it big relative to?,NA,images/chihuahua.png,images/dog-parade-basic.png,34,NA,NA,NA,none,2,dogs1,susan,NA,NA,yes,Your friend goes ahead of you. You see your friend in the distance:,NA,subj,service animal,chihuahua,30,chihuahuas,n/a,NA,some_college,small,NA,English,male,19248,You and your friend are at an animal training ground and you see the following:,2,1587738096074,NA,It is big relative to other,NA,1,NA,NA,incongruent,custom_main_text2,big,Your friend says: <br/><b>That big chihuahua is a service animal.</b>
2221,<i>What do you think Speaker A meant? </i>,NA,NA,NA,34,NA,NA,NA,None,2,NA,Elizabeth,1,NA,yes,NA,"<b> Speaker A: ""The Empire State Building is tall.""</b>",NA,NA,NA,56,buildings,NA,NA,graduated_college,NA,comp_class_warmup,English,female,NA,In the main trials you will be asked to rephrase something a person said. The utterance will contain a word that is <i>relative</i> and your task is to figure out what it is relative to. <br /> <br /> For example: <br />,1,1587737604436,1,The Empire State Building is tall relative to other,NA,1.25,NA,"buildings, skyscrapers, houses, constructions (choose one)",NA,comp_class_warmup,NA,NA
2221,NA,dandelion,NA,NA,34,warmup/sunflower2.png,dandelion,This is a,None,2,flowers,Elizabeth,NA,sunflower,yes,Your turn! Please label the pictures below.,NA,NA,NA,NA,56,NA,NA,warmup/dandelion2.png,graduated_college,NA,NA,English,female,NA,NA,1,1587737604436,1,NA,This is a,1.25,sunflower,NA,NA,warmup1,NA,NA
2221,NA,redwood,NA,NA,34,warmup/bonsai2.png,redwood or sequoia (choose one),This is a,None,2,trees,Elizabeth,NA,bonsai,yes,Your turn! Please label the pictures below.,NA,NA,NA,NA,56,NA,NA,warmup/redwood2.png,graduated_college,NA,NA,English,female,NA,NA,2,1587737604436,1,NA,This is a,1.25,bonsai,NA,NA,warmup1,NA,NA
2221,NA,Pug,NA,NA,34,warmup/great-dane2.png,pug,This is a,None,2,dogs2,Elizabeth,NA,great dane,yes,Your turn! Please label the pictures below.,NA,NA,NA,NA,56,NA,NA,warmup/pug2.png,graduated_college,NA,NA,English,female,NA,NA,3,1587737604436,1,NA,This is a,1.25,Great Dane,NA,NA,warmup1,NA,NA
2221,What do you think your friend is saying is it big relative to?,NA,images/redwood_sign.png,images/tree-parade-basic.png,34,NA,NA,NA,None,2,trees,Elizabeth,NA,NA,yes,Your friend goes ahead of you. You see your friend in the distance:,NA,pred,landmark,redwood,56,trees,NA,NA,graduated_college,big,NA,English,female,26396,You and your friend walk to your friend's cabin in a park for the first time. You want to memorize the path and you see the following:,1,1587737604436,NA,It is big relative to other,NA,1.25,NA,NA,congruent,custom_main_text1,big,Your friend says: <br/><b>That landmark is a big redwood.</b>
2221,What do you think your friend is saying is it big relative to?,NA,images/pug.png,images/dog-parade-basic2.png,34,NA,NA,NA,None,2,dogs2,Elizabeth,NA,NA,yes,Your friend goes ahead of you. You see your friend in the distance:,NA,pred,prize-winner,pug,56,pug,NA,NA,graduated_college,small,NA,English,female,22482,You and your friend are at a pet show and you see the following:,2,1587737604436,NA,It is big relative to other,NA,1.25,NA,NA,incongruent,custom_main_text1,big,Your friend says: <br/><b>That prize-winner is a big pug.</b>
2221,What do you think your friend is saying is it small relative to?,NA,images/dandelion.png,images/flower-parade-basic.png,34,NA,NA,NA,None,2,flowers,Elizabeth,NA,NA,yes,Your friend goes ahead of you. You see your friend in the distance:,NA,subj,gift,dandelion,56,plants,NA,NA,graduated_college,small,NA,English,female,20194,You and your friend are at their garden and you see the following:,3,1587737604436,NA,It is small relative to other,NA,1.25,NA,NA,congruent,custom_main_text1,small,Your friend says: <br/><b>That small dandelion is a gift.</b>
2221,NA,Chihuahua,NA,NA,34,warmup/doberman2.png,chihuahua,This is a,None,2,dogs1,Elizabeth,NA,doberman,yes,Your turn! Please label the pictures below.,NA,NA,NA,NA,56,NA,NA,warmup/chihuahua2.png,graduated_college,NA,NA,English,female,NA,NA,1,1587737604436,1,NA,This is a,1.25,Doberman,NA,NA,warmup2,NA,NA
2221,NA,hummingbird,NA,NA,34,warmup/eagle2.png,hummingbird,This is a,None,2,birds,Elizabeth,NA,eagle,yes,Your turn! Please label the pictures below.,NA,NA,NA,NA,56,NA,NA,warmup/hummingbird2.png,graduated_college,NA,NA,English,female,NA,NA,2,1587737604436,1,NA,This is an,1.25,eagle,NA,NA,warmup2,NA,NA
2221,What do you think your friend is saying is it small relative to?,NA,images/eagle.png,images/bird-parade-basic.png,34,NA,NA,NA,None,2,birds,Elizabeth,NA,NA,yes,Your friend goes ahead of you. You see your friend in the distance:,NA,subj,rescue,eagle,56,birds,NA,NA,graduated_college,big,NA,English,female,12858,You visit your friend who works at an animal shelter and you see the following:,1,1587737604436,NA,It is small relative to other,NA,1.25,NA,NA,incongruent,custom_main_text2,small,Your friend says: <br/><b>That small eagle is a rescue.</b>
2221,What do you think your friend is saying is it small relative to?,NA,images/doberman.png,images/dog-parade-basic.png,34,NA,NA,NA,None,2,dogs1,Elizabeth,NA,NA,yes,Your friend goes ahead of you. You see your friend in the distance:,NA,subj,service animal,doberman,56,dogs,NA,NA,graduated_college,big,NA,English,female,21986,You and your friend are at an animal training ground and you see the following:,2,1587737604436,NA,It is small relative to other,NA,1.25,NA,NA,incongruent,custom_main_text2,small,Your friend says: <br/><b>That small doberman is a service animal.</b>
2220,<i>What do you think Speaker A meant? </i>,NA,NA,NA,34,NA,NA,NA,no,1,NA,Patricia,1,NA,yes,NA,"<b> Speaker A: ""The Empire State Building is tall.""</b>",NA,NA,NA,29,buildings,NA,NA,some_college,NA,comp_class_warmup,english,male,NA,In the main trials you will be asked to rephrase something a person said. The utterance will contain a word that is <i>relative</i> and your task is to figure out what it is relative to. <br /> <br /> For example: <br />,1,1587738044828,1,The Empire State Building is tall relative to other,NA,1.5,NA,"buildings, skyscrapers, houses, constructions (choose one)",NA,comp_class_warmup,NA,NA
2220,NA,redwood,NA,NA,34,warmup/bonsai2.png,redwood or sequoia (choose one),This is a,no,1,trees,Patricia,NA,bonsai,yes,Your turn! Please label the pictures below.,NA,NA,NA,NA,29,NA,NA,warmup/redwood2.png,some_college,NA,NA,english,male,NA,NA,1,1587738044828,1,NA,This is a,1.5,bonsai,NA,NA,warmup1,NA,NA
2220,NA,chiwuawua,NA,NA,34,warmup/doberman2.png,chihuahua,This is a,no,1,dogs1,Patricia,NA,doberman,yes,Your turn! Please label the pictures below.,NA,NA,NA,NA,29,NA,NA,warmup/chihuahua2.png,some_college,NA,NA,english,male,NA,NA,2,1587738044828,1,NA,This is a,1.5,doberman,NA,NA,warmup1,NA,NA
2220,NA,chihuahua,NA,NA,34,warmup/doberman2.png,chihuahua,This is a,no,1,dogs1,Patricia,NA,doberman,yes,Your turn! Please label the pictures below.,NA,NA,NA,NA,29,NA,NA,warmup/chihuahua2.png,some_college,NA,NA,english,male,NA,NA,2,1587738044828,2,NA,This is a,1.5,doberman,NA,NA,warmup1,NA,NA
2220,NA,hummingbird,NA,NA,34,warmup/eagle2.png,hummingbird,This is a,no,1,birds,Patricia,NA,eagle,yes,Your turn! Please label the pictures below.,NA,NA,NA,NA,29,NA,NA,warmup/hummingbird2.png,some_college,NA,NA,english,male,NA,NA,3,1587738044828,1,NA,This is an,1.5,eagle,NA,NA,warmup1,NA,NA
2220,What do you think your friend is saying is it big relative to?,NA,images/bonsai_stick.png,images/tree-parade-basic.png,34,NA,NA,NA,no,1,trees,Patricia,NA,NA,yes,Your friend goes ahead of you. You see your friend in the distance:,NA,pred,landmark,bonsai,29,bonsais,NA,NA,some_college,small,NA,english,male,27952,You and your friend walk to your friend's cabin in a park for the first time. You want to memorize the path and you see the following:,1,1587738044828,NA,It is big relative to other,NA,1.5,NA,NA,incongruent,custom_main_text1,big,Your friend says: <br/><b>That landmark is a big bonsai.</b>
2220,What do you think your friend is saying is it small relative to?,NA,images/doberman.png,images/dog-parade-basic.png,34,NA,NA,NA,no,1,dogs1,Patricia,NA,NA,yes,Your friend goes ahead of you. You see your friend in the distance:,NA,subj,service animal,doberman,29,dobermans,NA,NA,some_college,big,NA,english,male,21479,You and your friend are at an animal training ground and you see the following:,2,1587738044828,NA,It is small relative to other,NA,1.5,NA,NA,incongruent,custom_main_text1,small,Your friend says: <br/><b>That small doberman is a service animal.</b>
2220,What do you think your friend is saying is it small relative to?,NA,images/hummingbird.png,images/bird-parade-basic.png,34,NA,NA,NA,no,1,birds,Patricia,NA,NA,yes,Your friend goes ahead of you. You see your friend in the distance:,NA,pred,rescue,hummingbird,29,birds,NA,NA,some_college,small,NA,english,male,23688,You visit your friend who works at an animal shelter and you see the following:,3,1587738044828,NA,It is small relative to other,NA,1.5,NA,NA,congruent,custom_main_text1,small,Your friend says: <br/><b>That rescue is a small hummingbird.</b>
2220,NA,dandelion,NA,NA,34,warmup/sunflower2.png,dandelion,This is a,no,1,flowers,Patricia,NA,sunflower,yes,Your turn! Please label the pictures below.,NA,NA,NA,NA,29,NA,NA,warmup/dandelion2.png,some_college,NA,NA,english,male,NA,NA,1,1587738044828,1,NA,This is a,1.5,sunflower,NA,NA,warmup2,NA,NA
2220,NA,pug,NA,NA,34,warmup/great-dane2.png,pug,This is a,no,1,dogs2,Patricia,NA,great dane,yes,Your turn! Please label the pictures below.,NA,NA,NA,NA,29,NA,NA,warmup/pug2.png,some_college,NA,NA,english,male,NA,NA,2,1587738044828,1,NA,This is a,1.5,great dane,NA,NA,warmup2,NA,NA
2220,What do you think your friend is saying is it big relative to?,NA,images/sunflower.png,images/flower-parade-basic.png,34,NA,NA,NA,no,1,flowers,Patricia,NA,NA,yes,Your friend goes ahead of you. You see your friend in the distance:,NA,subj,gift,sunflower,29,flowers,NA,NA,some_college,big,NA,english,male,17472,You and your friend are at their garden and you see the following:,1,1587738044828,NA,It is big relative to other,NA,1.5,NA,NA,congruent,custom_main_text2,big,Your friend says: <br/><b>That big sunflower is a gift.</b>
2220,What do you think your friend is saying is it small relative to?,NA,images/great-dane.png,images/dog-parade-basic2.png,34,NA,NA,NA,no,1,dogs2,Patricia,NA,NA,yes,Your friend goes ahead of you. You see your friend in the distance:,NA,pred,prize-winner,Great Dane,29,great danes,NA,NA,some_college,big,NA,english,male,16097,You and your friend are at a pet show and you see the following:,2,1587738044828,NA,It is small relative to other,NA,1.5,NA,NA,incongruent,custom_main_text2,small,Your friend says: <br/><b>That prize-winner is a small Great Dane.</b>
2219,<i>What do you think Speaker A meant? </i>,NA,NA,NA,34,NA,NA,NA,No,1,NA,Sarah,1,NA,NA,NA,"<b> Speaker A: ""The Empire State Building is tall.""</b>",NA,NA,NA,64,buildings,NA,NA,graduated_college,NA,comp_class_warmup,English,female,NA,In the main trials you will be asked to rephrase something a person said. The utterance will contain a word that is <i>relative</i> and your task is to figure out what it is relative to. <br /> <br /> For example: <br />,1,1587737602932,1,The Empire State Building is tall relative to other,NA,1,NA,"buildings, skyscrapers, houses, constructions (choose one)",NA,comp_class_warmup,NA,NA
2219,NA,hummingbird,NA,NA,34,warmup/eagle2.png,hummingbird,This is a,No,1,birds,Sarah,NA,eagle,NA,Your turn! Please label the pictures below.,NA,NA,NA,NA,64,NA,NA,warmup/hummingbird2.png,graduated_college,NA,NA,English,female,NA,NA,1,1587737602932,1,NA,This is an,1,eagle,NA,NA,warmup1,NA,NA
2219,NA,dandelion,NA,NA,34,warmup/sunflower2.png,dandelion,This is a,No,1,flowers,Sarah,NA,sunflower,NA,Your turn! Please label the pictures below.,NA,NA,NA,NA,64,NA,NA,warmup/dandelion2.png,graduated_college,NA,NA,English,female,NA,NA,2,1587737602932,1,NA,This is a,1,sunflower,NA,NA,warmup1,NA,NA
2219,NA,redwood,NA,NA,34,warmup/bonsai2.png,redwood or sequoia (choose one),This is a,No,1,trees,Sarah,NA,bonsai,NA,Your turn! Please label the pictures below.,NA,NA,NA,NA,64,NA,NA,warmup/redwood2.png,graduated_college,NA,NA,English,female,NA,NA,3,1587737602932,1,NA,This is a,1,bonsai,NA,NA,warmup1,NA,NA
2219,What do you think your friend is saying is it small relative to?,NA,images/sunflower.png,images/flower-parade-basic.png,34,NA,NA,NA,No,1,flowers,Sarah,NA,NA,NA,Your friend goes ahead of you. You see your friend in the distance:,NA,subj,gift,sunflower,64,flowers,NA,NA,graduated_college,big,NA,English,female,45501,You and your friend are at their garden and you see the following:,1,1587737602932,NA,It is small relative to other,NA,1,NA,NA,incongruent,custom_main_text1,small,Your friend says: <br/><b>That small sunflower is a gift.</b>
2219,What do you think your friend is saying is it small relative to?,NA,images/bonsai_stick.png,images/tree-parade-basic.png,34,NA,NA,NA,No,1,trees,Sarah,NA,NA,NA,Your friend goes ahead of you. You see your friend in the distance:,NA,pred,landmark,bonsai,64,trees,NA,NA,graduated_college,small,NA,English,female,60464,You and your friend walk to your friend's cabin in a park for the first time. You want to memorize the path and you see the following:,2,1587737602932,NA,It is small relative to other,NA,1,NA,NA,congruent,custom_main_text1,small,Your friend says: <br/><b>That landmark is a small bonsai.</b>
