submission_id,question,response1,sentence_left,context_picture,pic,experiment_id,picture2,correct1,question1,problems,enjoyment,item,botresponse,trials,correct2,pic_spec,understand,text,condition,sentence,age,response,comments,ref_spec,picture1,response3,education,target_size,name,languages,sex,RT,correct3,context,trial_number,startTime,attempts,question3,fairprice,question2,response2,correct,adj_cond,trial_name,utterance
622,<i>What do you think Speaker A meant? </i>,NA,The Empire State Building is tall relative to other,NA,NA,20,NA,NA,NA,nothing,0,NA,jessica,1,NA,NA,NA,NA,NA,"<b> Speaker A: ""The Empire State Building is tall.""</b>",NA,stATE,nice,NA,NA,NA,graduated_college,NA,comp_class_warmup,english,NA,NA,NA,In the main trials you will be asked to rephrase something a person said. The utterance will contain a word that is <i>relative</i> and your task is to figure out what it is relative to. <br /> <br /> For example: <br /><br />,1,1571853615671,1,NA,2,NA,NA,"buildings, skyscrapers, houses, constructions (choose one)",NA,comp_class_warmup,NA
622,<i>What do you think Speaker A meant? </i>,NA,The Empire State Building is tall relative to other,NA,NA,20,NA,NA,NA,nothing,0,NA,jessica,1,NA,NA,NA,NA,NA,"<b> Speaker A: ""The Empire State Building is tall.""</b>",NA,BUILDING,nice,NA,NA,NA,graduated_college,NA,comp_class_warmup,english,NA,NA,NA,In the main trials you will be asked to rephrase something a person said. The utterance will contain a word that is <i>relative</i> and your task is to figure out what it is relative to. <br /> <br /> For example: <br /><br />,1,1571853615671,2,NA,2,NA,NA,"buildings, skyscrapers, houses, constructions (choose one)",NA,comp_class_warmup,NA
622,NA,SUN FLOWER TREE,NA,NA,NA,20,warmup/sunflower.png,dandelion,This is a,nothing,0,flowers,jessica,NA,sunflower,NA,NA,Please label the pictures below.,NA,NA,NA,NA,nice,NA,warmup/dandelion.jpg,SUN FLOWERS,graduated_college,NA,NA,english,NA,NA,flowers,NA,1,1571853615671,1,This is a,2,These are both,SUNFLOWER,NA,NA,warmup1,NA
622,NA,DENDELION,NA,NA,NA,20,warmup/sunflower.png,dandelion,This is a,nothing,0,flowers,jessica,NA,sunflower,NA,NA,Please label the pictures below.,NA,NA,NA,NA,nice,NA,warmup/dandelion.jpg,FLOWERS,graduated_college,NA,NA,english,NA,NA,flowers,NA,1,1571853615671,2,This is a,2,These are both,SUNFLOWER,NA,NA,warmup1,NA
622,NA,dendelion,NA,NA,NA,20,warmup/sunflower.png,dandelion,This is a,nothing,0,flowers,jessica,NA,sunflower,NA,NA,Please label the pictures below.,NA,NA,NA,NA,nice,NA,warmup/dandelion.jpg,FLOWERS,graduated_college,NA,NA,english,NA,NA,flowers,NA,1,1571853615671,3,This is a,2,These are both,SUNFLOWER,NA,NA,warmup1,NA
622,NA,dendelion,NA,NA,NA,20,warmup/sunflower.png,dandelion,This is a,nothing,0,flowers,jessica,NA,sunflower,NA,NA,Please label the pictures below.,NA,NA,NA,NA,nice,NA,warmup/dandelion.jpg,FLOWERS,graduated_college,NA,NA,english,NA,NA,flowers,NA,1,1571853615671,4,This is a,2,These are both,SUNFLOWER,NA,NA,warmup1,NA
622,NA,dandelion,NA,NA,NA,20,warmup/sunflower.png,dandelion,This is a,nothing,0,flowers,jessica,NA,sunflower,NA,NA,Please label the pictures below.,NA,NA,NA,NA,nice,NA,warmup/dandelion.jpg,FLOWERS,graduated_college,NA,NA,english,NA,NA,flowers,NA,1,1571853615671,5,This is a,2,These are both,SUNFLOWER,NA,NA,warmup1,NA
622,NA,tree,NA,NA,NA,20,warmup/bonsai.jpg,redwood or sequoia (choose one),This is a,nothing,0,trees,jessica,NA,bonsai,NA,NA,Please label the pictures below.,NA,NA,NA,NA,nice,NA,warmup/sequoia.png,trees,graduated_college,NA,NA,english,NA,NA,trees,NA,2,1571853615671,1,This is a,2,These are both,small tree,NA,NA,warmup1,NA
622,NA,redwood,NA,NA,NA,20,warmup/bonsai.jpg,redwood or sequoia (choose one),This is a,nothing,0,trees,jessica,NA,bonsai,NA,NA,Please label the pictures below.,NA,NA,NA,NA,nice,NA,warmup/sequoia.png,trees,graduated_college,NA,NA,english,NA,NA,trees,NA,2,1571853615671,2,This is a,2,These are both,bonsai,NA,NA,warmup1,NA
622,NA,fish,NA,NA,NA,20,warmup/goldfish.png,swordfish,This is a,nothing,0,fish,jessica,NA,goldfish,NA,NA,Please label the pictures below.,NA,NA,NA,NA,nice,NA,warmup/swordfish.jpg,fishes,graduated_college,NA,NA,english,NA,NA,fish,NA,3,1571853615671,1,This is a,2,These are both,fish,NA,NA,warmup1,NA
622,NA,swordish,NA,NA,NA,20,warmup/goldfish.png,swordfish,This is a,nothing,0,fish,jessica,NA,goldfish,NA,NA,Please label the pictures below.,NA,NA,NA,NA,nice,NA,warmup/swordfish.jpg,fish,graduated_college,NA,NA,english,NA,NA,fish,NA,3,1571853615671,2,This is a,2,These are both,goldfish,NA,NA,warmup1,NA
622,NA,swordfish,NA,NA,NA,20,warmup/goldfish.png,swordfish,This is a,nothing,0,fish,jessica,NA,goldfish,NA,NA,Please label the pictures below.,NA,NA,NA,NA,nice,NA,warmup/swordfish.jpg,fish,graduated_college,NA,NA,english,NA,NA,fish,NA,3,1571853615671,3,This is a,2,These are both,goldfish,NA,NA,warmup1,NA
622,What do you think your friend meant?,NA,It is big  relative to other,images/flower-parade-basic.png,images/sunflower.png,20,NA,NA,NA,nothing,0,flowers,jessica,NA,NA,0,NA,"Your friend runs far ahead of you, and you see him in the distance:",prenominal,NA,NA,small sunflower,nice,1,NA,NA,graduated_college,big,NA,english,NA,NA,NA,You and your friend see the following:,1,1571853615671,NA,NA,2,NA,NA,NA,basic,custom_main_text1,Your friend says: <br/><b>That's a big sunflower.</b>
622,What do you think your friend meant?,NA,It is small  relative to other,images/tree-parade-bonsai.png,images/bonsai.png,20,NA,NA,NA,nothing,0,trees,jessica,NA,NA,1,NA,"Your friend runs far ahead of you, and you see him in the distance:",prenominal,NA,NA,tree,nice,1,NA,NA,graduated_college,small,NA,english,NA,NA,NA,You and your friend see the following:,2,1571853615671,NA,NA,2,NA,NA,NA,congr,custom_main_text1,Your friend says: <br/><b>That's a small bonsai.</b>
622,What do you think your friend meant?,NA,It is small  relative to other,images/fish-parade-goldfish.png,images/goldfish.png,20,NA,NA,NA,nothing,0,fish,jessica,NA,NA,1,NA,"Your friend runs far ahead of you, and you see him in the distance:",prenominal,NA,NA,fish,nice,1,NA,NA,graduated_college,small,NA,english,NA,NA,NA,You and your friend see the following:,3,1571853615671,NA,NA,2,NA,NA,NA,congr,custom_main_text1,Your friend says: <br/><b>That's a small goldfish.</b>
622,NA,dow,NA,NA,NA,20,warmup/eagle.jpg,hummingbird,This is a,nothing,0,birds,jessica,NA,eagle,NA,NA,Please label the pictures below.,NA,NA,NA,NA,nice,NA,warmup/colibri.jpg,fly,graduated_college,NA,NA,english,NA,NA,birds,NA,1,1571853615671,1,This is an,2,These are both,eagle,NA,NA,warmup2,NA
622,NA,hummingbird,NA,NA,NA,20,warmup/eagle.jpg,hummingbird,This is a,nothing,0,birds,jessica,NA,eagle,NA,NA,Please label the pictures below.,NA,NA,NA,NA,nice,NA,warmup/colibri.jpg,birds,graduated_college,NA,NA,english,NA,NA,birds,NA,1,1571853615671,2,This is an,2,These are both,eagle,NA,NA,warmup2,NA
622,NA,small dog,NA,NA,NA,20,warmup/doberman.png,chihuahua,This is a,nothing,0,dogs,jessica,NA,doberman,NA,NA,Please label the pictures below.,NA,NA,NA,NA,nice,NA,warmup/chihuahua.jpg,dogs,graduated_college,NA,NA,english,NA,NA,dogs,NA,2,1571853615671,1,This is a,2,These are both,dog,NA,NA,warmup2,NA
622,NA,small dog,NA,NA,NA,20,warmup/doberman.png,chihuahua,This is a,nothing,0,dogs,jessica,NA,doberman,NA,NA,Please label the pictures below.,NA,NA,NA,NA,nice,NA,warmup/chihuahua.jpg,dogs,graduated_college,NA,NA,english,NA,NA,dogs,NA,2,1571853615671,2,This is a,2,These are both,dog,NA,NA,warmup2,NA
622,NA,chihuahua,NA,NA,NA,20,warmup/doberman.png,chihuahua,This is a,nothing,0,dogs,jessica,NA,doberman,NA,NA,Please label the pictures below.,NA,NA,NA,NA,nice,NA,warmup/chihuahua.jpg,dogs,graduated_college,NA,NA,english,NA,NA,dogs,NA,2,1571853615671,3,This is a,2,These are both,doberman,NA,NA,warmup2,NA
622,NA,lion,NA,NA,NA,20,warmup/great-dane.jpg,pug,This is a,nothing,0,dogs,jessica,NA,great dane,NA,NA,Please label the pictures below.,NA,NA,NA,NA,nice,NA,warmup/pug.jpg,animals,graduated_college,NA,NA,english,NA,NA,dogs,NA,3,1571853615671,1,This is a,2,These are both,dog,NA,NA,warmup2,NA
622,NA,pug,NA,NA,NA,20,warmup/great-dane.jpg,pug,This is a,nothing,0,dogs,jessica,NA,great dane,NA,NA,Please label the pictures below.,NA,NA,NA,NA,nice,NA,warmup/pug.jpg,dogs,graduated_college,NA,NA,english,NA,NA,dogs,NA,3,1571853615671,2,This is a,2,These are both,great dane,NA,NA,warmup2,NA
622,What do you think your friend meant?,NA,It is big  relative to other,images/dog-parade-basic.png,images/doberman.png,20,NA,NA,NA,nothing,0,dogs1,jessica,NA,NA,0,NA,"Your friend runs far ahead of you, and you see him in the distance:",prenominal,NA,NA,doberman,nice,1,NA,NA,graduated_college,big,NA,english,NA,NA,NA,You and your friend see the following:,1,1571853615671,NA,NA,2,NA,NA,NA,basic,custom_main_text2,Your friend says: <br/><b>That's a big doberman.</b>
622,What do you think your friend meant?,NA,It is big  relative to other,images/bird-parade-basic.png,images/eagle.png,20,NA,NA,NA,nothing,0,birds,jessica,NA,NA,0,NA,"Your friend runs far ahead of you, and you see him in the distance:",prenominal,NA,NA,eagle,nice,1,NA,NA,graduated_college,big,NA,english,NA,NA,NA,You and your friend see the following:,2,1571853615671,NA,NA,2,NA,NA,NA,basic,custom_main_text2,Your friend says: <br/><b>That's a big eagle.</b>
622,What do you think your friend meant?,NA,It is small  relative to other,images/dog-parade-pug.png,images/pug.png,20,NA,NA,NA,nothing,0,dogs2,jessica,NA,NA,1,NA,"Your friend runs far ahead of you, and you see him in the distance:",prenominal,NA,NA,pug,nice,1,NA,NA,graduated_college,small,NA,english,NA,NA,NA,You and your friend see the following:,3,1571853615671,NA,NA,2,NA,NA,NA,congr,custom_main_text2,Your friend says: <br/><b>That's a small pug.</b>
620,<i>What do you think Speaker A meant? </i>,NA,The Empire State Building is tall relative to other,NA,NA,20,NA,NA,NA,NA,2,NA,jessica,1,NA,NA,yes,NA,NA,"<b> Speaker A: ""The Empire State Building is tall.""</b>",33,buildings,NA,NA,NA,NA,graduated_college,NA,comp_class_warmup,"German, English",female,NA,NA,In the main trials you will be asked to rephrase something a person said. The utterance will contain a word that is <i>relative</i> and your task is to figure out what it is relative to. <br /> <br /> For example: <br /><br />,1,1571838933991,1,NA,1,NA,NA,"buildings, skyscrapers, houses, constructions (choose one)",NA,comp_class_warmup,NA
620,NA,redwood tree,NA,NA,NA,20,warmup/bonsai.jpg,redwood or sequoia (choose one),This is a,NA,2,trees,jessica,NA,bonsai,NA,yes,Please label the pictures below.,NA,NA,33,NA,NA,NA,warmup/sequoia.png,trees,graduated_college,NA,NA,"German, English",female,NA,trees,NA,1,1571838933991,1,This is a,1,These are both,bonsai,NA,NA,warmup1,NA
620,NA,redwood,NA,NA,NA,20,warmup/bonsai.jpg,redwood or sequoia (choose one),This is a,NA,2,trees,jessica,NA,bonsai,NA,yes,Please label the pictures below.,NA,NA,33,NA,NA,NA,warmup/sequoia.png,trees,graduated_college,NA,NA,"German, English",female,NA,trees,NA,1,1571838933991,2,This is a,1,These are both,bonsai,NA,NA,warmup1,NA
620,NA,pug,NA,NA,NA,20,warmup/great-dane.jpg,pug,This is a,NA,2,dogs,jessica,NA,great dane,NA,yes,Please label the pictures below.,NA,NA,33,NA,NA,NA,warmup/pug.jpg,dogs,graduated_college,NA,NA,"German, English",female,NA,dogs,NA,2,1571838933991,1,This is a,1,These are both,great dane,NA,NA,warmup1,NA
620,NA,chihuahua,NA,NA,NA,20,warmup/doberman.png,chihuahua,This is a,NA,2,dogs,jessica,NA,doberman,NA,yes,Please label the pictures below.,NA,NA,33,NA,NA,NA,warmup/chihuahua.jpg,dogs,graduated_college,NA,NA,"German, English",female,NA,dogs,NA,3,1571838933991,1,This is a,1,These are both,doberman,NA,NA,warmup1,NA
620,What do you think your friend meant?,NA,It is small  relative to other,images/dog-parade-pug.png,images/pug.png,20,NA,NA,NA,NA,2,dogs2,jessica,NA,NA,1,yes,"Your friend runs far ahead of you, and you see him in the distance:",prenominal,NA,33,pugs,NA,1,NA,NA,graduated_college,small,NA,"German, English",female,NA,NA,You and your friend see the following:,1,1571838933991,NA,NA,1,NA,NA,NA,congr,custom_main_text1,Your friend says: <br/><b>That's a small pug.</b>
620,What do you think your friend meant?,NA,It is big  relative to other,images/dog-parade-doberman.png,images/doberman.png,20,NA,NA,NA,NA,2,dogs1,jessica,NA,NA,1,yes,"Your friend runs far ahead of you, and you see him in the distance:",prenominal,NA,33,dobermans,NA,1,NA,NA,graduated_college,big,NA,"German, English",female,NA,NA,You and your friend see the following:,2,1571838933991,NA,NA,1,NA,NA,NA,congr,custom_main_text1,Your friend says: <br/><b>That's a big doberman.</b>
620,What do you think your friend meant?,NA,It is big  relative to other,images/tree-parade-basic.png,images/redwood.png,20,NA,NA,NA,NA,2,trees,jessica,NA,NA,0,yes,"Your friend runs far ahead of you, and you see him in the distance:",prenominal,NA,33,redwood,NA,1,NA,NA,graduated_college,big,NA,"German, English",female,NA,NA,You and your friend see the following:,3,1571838933991,NA,NA,1,NA,NA,NA,basic,custom_main_text1,Your friend says: <br/><b>That's a big redwood.</b>
620,NA,dandelion,NA,NA,NA,20,warmup/sunflower.png,dandelion,This is a,NA,2,flowers,jessica,NA,sunflower,NA,yes,Please label the pictures below.,NA,NA,33,NA,NA,NA,warmup/dandelion.jpg,flowers,graduated_college,NA,NA,"German, English",female,NA,flowers,NA,1,1571838933991,1,This is a,1,These are both,sunflower,NA,NA,warmup2,NA
620,NA,marlin,NA,NA,NA,20,warmup/goldfish.png,swordfish,This is a,NA,2,fish,jessica,NA,goldfish,NA,yes,Please label the pictures below.,NA,NA,33,NA,NA,NA,warmup/swordfish.jpg,fish,graduated_college,NA,NA,"German, English",female,NA,fish,NA,2,1571838933991,1,This is a,1,These are both,goldfish,NA,NA,warmup2,NA
620,NA,swordfish,NA,NA,NA,20,warmup/goldfish.png,swordfish,This is a,NA,2,fish,jessica,NA,goldfish,NA,yes,Please label the pictures below.,NA,NA,33,NA,NA,NA,warmup/swordfish.jpg,fish,graduated_college,NA,NA,"German, English",female,NA,fish,NA,2,1571838933991,2,This is a,1,These are both,goldfish,NA,NA,warmup2,NA
620,NA,hummingbird,NA,NA,NA,20,warmup/eagle.jpg,hummingbird,This is a,NA,2,birds,jessica,NA,eagle,NA,yes,Please label the pictures below.,NA,NA,33,NA,NA,NA,warmup/colibri.jpg,birds,graduated_college,NA,NA,"German, English",female,NA,birds,NA,3,1571838933991,1,This is an,1,These are both,eagle,NA,NA,warmup2,NA
620,What do you think your friend meant?,NA,It is big  relative to other,images/fish-parade-basic.png,images/swordfish.png,20,NA,NA,NA,NA,2,fish,jessica,NA,NA,0,yes,"Your friend runs far ahead of you, and you see him in the distance:",prenominal,NA,33,swordfish,NA,1,NA,NA,graduated_college,big,NA,"German, English",female,NA,NA,You and your friend see the following:,1,1571838933991,NA,NA,1,NA,NA,NA,basic,custom_main_text2,Your friend says: <br/><b>That's a big swordfish.</b>
620,What do you think your friend meant?,NA,It is small  relative to other,images/bird-parade-hummingbird.png,images/hummingbird.png,20,NA,NA,NA,NA,2,birds,jessica,NA,NA,1,yes,"Your friend runs far ahead of you, and you see him in the distance:",prenominal,NA,33,hummingbirds,NA,1,NA,NA,graduated_college,small,NA,"German, English",female,NA,NA,You and your friend see the following:,2,1571838933991,NA,NA,1,NA,NA,NA,congr,custom_main_text2,Your friend says: <br/><b>That's a small hummingbird.</b>
620,What do you think your friend meant?,NA,It is small  relative to other,images/flower-parade-basic.png,images/dandelion.png,20,NA,NA,NA,NA,2,flowers,jessica,NA,NA,0,yes,"Your friend runs far ahead of you, and you see him in the distance:",prenominal,NA,33,dandelions,NA,1,NA,NA,graduated_college,small,NA,"German, English",female,NA,NA,You and your friend see the following:,3,1571838933991,NA,NA,1,NA,NA,NA,basic,custom_main_text2,Your friend says: <br/><b>That's a small dandelion.</b>
619,<i>What do you think Speaker A meant? </i>,NA,The Empire State Building is tall relative to other,NA,NA,20,NA,NA,NA,Everything loaded fine,2,NA,mary,1,NA,NA,yes,NA,NA,"<b> Speaker A: ""The Empire State Building is tall.""</b>",32,buildings,"I will fight whoever says that picture wasn't of a marlin! LOL!\n\nEverything loaded fine and was clear, thank you!",NA,NA,NA,some_college,NA,comp_class_warmup,English,female,NA,NA,In the main trials you will be asked to rephrase something a person said. The utterance will contain a word that is <i>relative</i> and your task is to figure out what it is relative to. <br /> <br /> For example: <br /><br />,1,1571838725188,1,NA,1,NA,NA,"buildings, skyscrapers, houses, constructions (choose one)",NA,comp_class_warmup,NA
619,NA,redwood,NA,NA,NA,20,warmup/bonsai.jpg,redwood or sequoia (choose one),This is a,Everything loaded fine,2,trees,mary,NA,bonsai,NA,yes,Please label the pictures below.,NA,NA,32,NA,"I will fight whoever says that picture wasn't of a marlin! LOL!\n\nEverything loaded fine and was clear, thank you!",NA,warmup/sequoia.png,trees,some_college,NA,NA,English,female,NA,trees,NA,1,1571838725188,1,This is a,1,These are both,bonsai,NA,NA,warmup1,NA
619,NA,dandelion,NA,NA,NA,20,warmup/sunflower.png,dandelion,This is a,Everything loaded fine,2,flowers,mary,NA,sunflower,NA,yes,Please label the pictures below.,NA,NA,32,NA,"I will fight whoever says that picture wasn't of a marlin! LOL!\n\nEverything loaded fine and was clear, thank you!",NA,warmup/dandelion.jpg,flowers,some_college,NA,NA,English,female,NA,flowers,NA,2,1571838725188,1,This is a,1,These are both,sunflower,NA,NA,warmup1,NA
619,NA,pug,NA,NA,NA,20,warmup/great-dane.jpg,pug,This is a,Everything loaded fine,2,dogs,mary,NA,great dane,NA,yes,Please label the pictures below.,NA,NA,32,NA,"I will fight whoever says that picture wasn't of a marlin! LOL!\n\nEverything loaded fine and was clear, thank you!",NA,warmup/pug.jpg,dogs,some_college,NA,NA,English,female,NA,dogs,NA,3,1571838725188,1,This is a,1,These are both,great dane,NA,NA,warmup1,NA
619,What do you think your friend meant?,NA,It is small  relative to other,images/tree-parade-bonsai.png,images/bonsai.png,20,NA,NA,NA,Everything loaded fine,2,trees,mary,NA,NA,1,yes,"Your friend runs far ahead of you, and you see him in the distance:",prenominal,NA,32,bonsais,"I will fight whoever says that picture wasn't of a marlin! LOL!\n\nEverything loaded fine and was clear, thank you!",1,NA,NA,some_college,small,NA,English,female,NA,NA,You and your friend see the following:,1,1571838725188,NA,NA,1,NA,NA,NA,congr,custom_main_text1,Your friend says: <br/><b>That's a small bonsai.</b>
619,What do you think your friend meant?,NA,It is small  relative to other,images/flower-parade-dandelion.png,images/dandelion.png,20,NA,NA,NA,Everything loaded fine,2,flowers,mary,NA,NA,1,yes,"Your friend runs far ahead of you, and you see him in the distance:",prenominal,NA,32,dandelions,"I will fight whoever says that picture wasn't of a marlin! LOL!\n\nEverything loaded fine and was clear, thank you!",1,NA,NA,some_college,small,NA,English,female,NA,NA,You and your friend see the following:,2,1571838725188,NA,NA,1,NA,NA,NA,congr,custom_main_text1,Your friend says: <br/><b>That's a small dandelion.</b>
619,What do you think your friend meant?,NA,It is big  relative to other,images/dog-parade-basic2.png,images/great-dane.png,20,NA,NA,NA,Everything loaded fine,2,dogs2,mary,NA,NA,0,yes,"Your friend runs far ahead of you, and you see him in the distance:",prenominal,NA,32,dogs,"I will fight whoever says that picture wasn't of a marlin! LOL!\n\nEverything loaded fine and was clear, thank you!",1,NA,NA,some_college,big,NA,English,female,NA,NA,You and your friend see the following:,3,1571838725188,NA,NA,1,NA,NA,NA,basic,custom_main_text1,Your friend says: <br/><b>That's a big great dane.</b>
619,NA,hummingbird,NA,NA,NA,20,warmup/eagle.jpg,hummingbird,This is a,Everything loaded fine,2,birds,mary,NA,eagle,NA,yes,Please label the pictures below.,NA,NA,32,NA,"I will fight whoever says that picture wasn't of a marlin! LOL!\n\nEverything loaded fine and was clear, thank you!",NA,warmup/colibri.jpg,birds,some_college,NA,NA,English,female,NA,birds,NA,1,1571838725188,1,This is an,1,These are both,bald eagle,NA,NA,warmup2,NA
619,NA,hummingbird,NA,NA,NA,20,warmup/eagle.jpg,hummingbird,This is a,Everything loaded fine,2,birds,mary,NA,eagle,NA,yes,Please label the pictures below.,NA,NA,32,NA,"I will fight whoever says that picture wasn't of a marlin! LOL!\n\nEverything loaded fine and was clear, thank you!",NA,warmup/colibri.jpg,birds,some_college,NA,NA,English,female,NA,birds,NA,1,1571838725188,2,This is an,1,These are both,eagle,NA,NA,warmup2,NA
619,NA,chihuahua,NA,NA,NA,20,warmup/doberman.png,chihuahua,This is a,Everything loaded fine,2,dogs,mary,NA,doberman,NA,yes,Please label the pictures below.,NA,NA,32,NA,"I will fight whoever says that picture wasn't of a marlin! LOL!\n\nEverything loaded fine and was clear, thank you!",NA,warmup/chihuahua.jpg,dogs,some_college,NA,NA,English,female,NA,dogs,NA,2,1571838725188,1,This is a,1,These are both,doberman,NA,NA,warmup2,NA
619,NA,marlin,NA,NA,NA,20,warmup/goldfish.png,swordfish,This is a,Everything loaded fine,2,fish,mary,NA,goldfish,NA,yes,Please label the pictures below.,NA,NA,32,NA,"I will fight whoever says that picture wasn't of a marlin! LOL!\n\nEverything loaded fine and was clear, thank you!",NA,warmup/swordfish.jpg,fish,some_college,NA,NA,English,female,NA,fish,NA,3,1571838725188,1,This is a,1,These are both,goldfish,NA,NA,warmup2,NA
619,NA,swordfish,NA,NA,NA,20,warmup/goldfish.png,swordfish,This is a,Everything loaded fine,2,fish,mary,NA,goldfish,NA,yes,Please label the pictures below.,NA,NA,32,NA,"I will fight whoever says that picture wasn't of a marlin! LOL!\n\nEverything loaded fine and was clear, thank you!",NA,warmup/swordfish.jpg,fish,some_college,NA,NA,English,female,NA,fish,NA,3,1571838725188,2,This is a,1,These are both,goldfish,NA,NA,warmup2,NA
619,What do you think your friend meant?,NA,It is big  relative to other,images/bird-parade-basic.png,images/eagle.png,20,NA,NA,NA,Everything loaded fine,2,birds,mary,NA,NA,0,yes,"Your friend runs far ahead of you, and you see him in the distance:",prenominal,NA,32,birds,"I will fight whoever says that picture wasn't of a marlin! LOL!\n\nEverything loaded fine and was clear, thank you!",1,NA,NA,some_college,big,NA,English,female,NA,NA,You and your friend see the following:,1,1571838725188,NA,NA,1,NA,NA,NA,basic,custom_main_text2,Your friend says: <br/><b>That's a big eagle.</b>
619,What do you think your friend meant?,NA,It is big  relative to other,images/fish-parade-basic.png,images/swordfish.png,20,NA,NA,NA,Everything loaded fine,2,fish,mary,NA,NA,0,yes,"Your friend runs far ahead of you, and you see him in the distance:",prenominal,NA,32,fish,"I will fight whoever says that picture wasn't of a marlin! LOL!\n\nEverything loaded fine and was clear, thank you!",1,NA,NA,some_college,big,NA,English,female,NA,NA,You and your friend see the following:,2,1571838725188,NA,NA,1,NA,NA,NA,basic,custom_main_text2,Your friend says: <br/><b>That's a big swordfish.</b>
619,What do you think your friend meant?,NA,It is small  relative to other,images/dog-parade-chihuahua.png,images/chihuahua.png,20,NA,NA,NA,Everything loaded fine,2,dogs1,mary,NA,NA,1,yes,"Your friend runs far ahead of you, and you see him in the distance:",prenominal,NA,32,chihuahuas,"I will fight whoever says that picture wasn't of a marlin! LOL!\n\nEverything loaded fine and was clear, thank you!",1,NA,NA,some_college,small,NA,English,female,NA,NA,You and your friend see the following:,3,1571838725188,NA,NA,1,NA,NA,NA,congr,custom_main_text2,Your friend says: <br/><b>That's a small chihuahua.</b>
618,<i>What do you think Speaker A meant? </i>,NA,The Empire State Building is tall relative to other,NA,NA,20,NA,NA,NA,no,1,NA,susan,1,NA,NA,yes,NA,NA,"<b> Speaker A: ""The Empire State Building is tall.""</b>",50,buildings,NA,NA,NA,NA,graduated_college,NA,comp_class_warmup,English,female,NA,NA,In the main trials you will be asked to rephrase something a person said. The utterance will contain a word that is <i>relative</i> and your task is to figure out what it is relative to. <br /> <br /> For example: <br /><br />,1,1571838747589,1,NA,1,NA,NA,"buildings, skyscrapers, houses, constructions (choose one)",NA,comp_class_warmup,NA
618,NA,puppy,NA,NA,NA,20,warmup/doberman.png,chihuahua,This is a,no,1,dogs,susan,NA,doberman,NA,yes,Please label the pictures below.,NA,NA,50,NA,NA,NA,warmup/chihuahua.jpg,dogs,graduated_college,NA,NA,English,female,NA,dogs,NA,1,1571838747589,1,This is a,1,These are both,adult,NA,NA,warmup1,NA
618,NA,chihuahua,NA,NA,NA,20,warmup/doberman.png,chihuahua,This is a,no,1,dogs,susan,NA,doberman,NA,yes,Please label the pictures below.,NA,NA,50,NA,NA,NA,warmup/chihuahua.jpg,dogs,graduated_college,NA,NA,English,female,NA,dogs,NA,1,1571838747589,2,This is a,1,These are both,doberman,NA,NA,warmup1,NA
618,NA,hummingbird,NA,NA,NA,20,warmup/eagle.jpg,hummingbird,This is a,no,1,birds,susan,NA,eagle,NA,yes,Please label the pictures below.,NA,NA,50,NA,NA,NA,warmup/colibri.jpg,birds,graduated_college,NA,NA,English,female,NA,birds,NA,2,1571838747589,1,This is an,1,These are both,eagle,NA,NA,warmup1,NA
618,NA,pug,NA,NA,NA,20,warmup/great-dane.jpg,pug,This is a,no,1,dogs,susan,NA,great dane,NA,yes,Please label the pictures below.,NA,NA,50,NA,NA,NA,warmup/pug.jpg,dogs,graduated_college,NA,NA,English,female,NA,dogs,NA,3,1571838747589,1,This is a,1,These are both,mastiff,NA,NA,warmup1,NA
618,NA,pug,NA,NA,NA,20,warmup/great-dane.jpg,pug,This is a,no,1,dogs,susan,NA,great dane,NA,yes,Please label the pictures below.,NA,NA,50,NA,NA,NA,warmup/pug.jpg,dogs,graduated_college,NA,NA,English,female,NA,dogs,NA,3,1571838747589,2,This is a,1,These are both,great dane,NA,NA,warmup1,NA
618,What do you think your friend meant?,NA,It is small  relative to other,images/bird-parade-hummingbird.png,images/hummingbird.png,20,NA,NA,NA,no,1,birds,susan,NA,NA,1,yes,"Your friend runs far ahead of you, and you see him in the distance:",prenominal,NA,50,birds,NA,1,NA,NA,graduated_college,small,NA,English,female,NA,NA,You and your friend see the following:,1,1571838747589,NA,NA,1,NA,NA,NA,congr,custom_main_text1,Your friend says: <br/><b>That's a small hummingbird.</b>
618,What do you think your friend meant?,NA,It is small  relative to other,images/dog-parade-basic2.png,images/pug.png,20,NA,NA,NA,no,1,dogs2,susan,NA,NA,0,yes,"Your friend runs far ahead of you, and you see him in the distance:",prenominal,NA,50,dogs,NA,1,NA,NA,graduated_college,small,NA,English,female,NA,NA,You and your friend see the following:,2,1571838747589,NA,NA,1,NA,NA,NA,basic,custom_main_text1,Your friend says: <br/><b>That's a small pug.</b>
618,What do you think your friend meant?,NA,It is big  relative to other,images/dog-parade-basic.png,images/doberman.png,20,NA,NA,NA,no,1,dogs1,susan,NA,NA,0,yes,"Your friend runs far ahead of you, and you see him in the distance:",prenominal,NA,50,dobermans,NA,1,NA,NA,graduated_college,big,NA,English,female,NA,NA,You and your friend see the following:,3,1571838747589,NA,NA,1,NA,NA,NA,basic,custom_main_text1,Your friend says: <br/><b>That's a big doberman.</b>
618,NA,swordfish,NA,NA,NA,20,warmup/goldfish.png,swordfish,This is a,no,1,fish,susan,NA,goldfish,NA,yes,Please label the pictures below.,NA,NA,50,NA,NA,NA,warmup/swordfish.jpg,fish,graduated_college,NA,NA,English,female,NA,fish,NA,1,1571838747589,1,This is a,1,These are both,goldfish,NA,NA,warmup2,NA
618,NA,dandelion,NA,NA,NA,20,warmup/sunflower.png,dandelion,This is a,no,1,flowers,susan,NA,sunflower,NA,yes,Please label the pictures below.,NA,NA,50,NA,NA,NA,warmup/dandelion.jpg,flowers,graduated_college,NA,NA,English,female,NA,flowers,NA,2,1571838747589,1,This is a,1,These are both,sunflower,NA,NA,warmup2,NA
618,NA,redwood,NA,NA,NA,20,warmup/bonsai.jpg,redwood or sequoia (choose one),This is a,no,1,trees,susan,NA,bonsai,NA,yes,Please label the pictures below.,NA,NA,50,NA,NA,NA,warmup/sequoia.png,trees,graduated_college,NA,NA,English,female,NA,trees,NA,3,1571838747589,1,This is a,1,These are both,bonsai,NA,NA,warmup2,NA
618,What do you think your friend meant?,NA,It is big  relative to other,images/tree-parade-redwood.png,images/redwood.png,20,NA,NA,NA,no,1,trees,susan,NA,NA,1,yes,"Your friend runs far ahead of you, and you see him in the distance:",prenominal,NA,50,redwoods,NA,1,NA,NA,graduated_college,big,NA,English,female,NA,NA,You and your friend see the following:,1,1571838747589,NA,NA,1,NA,NA,NA,congr,custom_main_text2,Your friend says: <br/><b>That's a big redwood.</b>
618,What do you think your friend meant?,NA,It is big  relative to other,images/flower-parade-basic.png,images/sunflower.png,20,NA,NA,NA,no,1,flowers,susan,NA,NA,0,yes,"Your friend runs far ahead of you, and you see him in the distance:",prenominal,NA,50,flowers,NA,1,NA,NA,graduated_college,big,NA,English,female,NA,NA,You and your friend see the following:,2,1571838747589,NA,NA,1,NA,NA,NA,basic,custom_main_text2,Your friend says: <br/><b>That's a big sunflower.</b>
618,What do you think your friend meant?,NA,It is small  relative to other,images/fish-parade-goldfish.png,images/goldfish.png,20,NA,NA,NA,no,1,fish,susan,NA,NA,1,yes,"Your friend runs far ahead of you, and you see him in the distance:",prenominal,NA,50,goldfish,NA,1,NA,NA,graduated_college,small,NA,English,female,NA,NA,You and your friend see the following:,3,1571838747589,NA,NA,1,NA,NA,NA,congr,custom_main_text2,Your friend says: <br/><b>That's a small goldfish.</b>
617,<i>What do you think Speaker A meant? </i>,NA,The Empire State Building is tall relative to other,NA,NA,20,NA,NA,NA,none,2,NA,Jessica,1,NA,NA,yes,NA,NA,"<b> Speaker A: ""The Empire State Building is tall.""</b>",34,buildings,NA,NA,NA,NA,graduated_college,NA,comp_class_warmup,English,male,NA,NA,In the main trials you will be asked to rephrase something a person said. The utterance will contain a word that is <i>relative</i> and your task is to figure out what it is relative to. <br /> <br /> For example: <br /><br />,1,1571837621927,1,NA,1,NA,NA,"buildings, skyscrapers, houses, constructions (choose one)",NA,comp_class_warmup,NA
617,NA,redwood,NA,NA,NA,20,warmup/bonsai.jpg,redwood or sequoia (choose one),This is a,none,2,trees,Jessica,NA,bonsai,NA,yes,Please label the pictures below.,NA,NA,34,NA,NA,NA,warmup/sequoia.png,trees,graduated_college,NA,NA,English,male,NA,trees,NA,1,1571837621927,1,This is a,1,These are both,bonzai,NA,NA,warmup1,NA
617,NA,redwood,NA,NA,NA,20,warmup/bonsai.jpg,redwood or sequoia (choose one),This is a,none,2,trees,Jessica,NA,bonsai,NA,yes,Please label the pictures below.,NA,NA,34,NA,NA,NA,warmup/sequoia.png,trees,graduated_college,NA,NA,English,male,NA,trees,NA,1,1571837621927,2,This is a,1,These are both,bonsai,NA,NA,warmup1,NA
617,NA,hummingbird,NA,NA,NA,20,warmup/eagle.jpg,hummingbird,This is a,none,2,birds,Jessica,NA,eagle,NA,yes,Please label the pictures below.,NA,NA,34,NA,NA,NA,warmup/colibri.jpg,birds,graduated_college,NA,NA,English,male,NA,birds,NA,2,1571837621927,1,This is an,1,These are both,eagle,NA,NA,warmup1,NA
617,NA,swordfish,NA,NA,NA,20,warmup/goldfish.png,swordfish,This is a,none,2,fish,Jessica,NA,goldfish,NA,yes,Please label the pictures below.,NA,NA,34,NA,NA,NA,warmup/swordfish.jpg,fish,graduated_college,NA,NA,English,male,NA,fish,NA,3,1571837621927,1,This is a,1,These are both,goldfish,NA,NA,warmup1,NA
617,What do you think your friend meant?,NA,It is big  relative to other,images/tree-parade-redwood.png,images/redwood.png,20,NA,NA,NA,none,2,trees,Jessica,NA,NA,1,yes,"Your friend runs far ahead of you, and you see him in the distance:",prenominal,NA,34,trees,NA,1,NA,NA,graduated_college,big,NA,English,male,NA,NA,You and your friend see the following:,1,1571837621927,NA,NA,1,NA,NA,NA,congr,custom_main_text1,Your friend says: <br/><b>That's a big redwood.</b>
617,What do you think your friend meant?,NA,It is small  relative to other,images/fish-parade-goldfish.png,images/goldfish.png,20,NA,NA,NA,none,2,fish,Jessica,NA,NA,1,yes,"Your friend runs far ahead of you, and you see him in the distance:",prenominal,NA,34,goldfish,NA,1,NA,NA,graduated_college,small,NA,English,male,NA,NA,You and your friend see the following:,2,1571837621927,NA,NA,1,NA,NA,NA,congr,custom_main_text1,Your friend says: <br/><b>That's a small goldfish.</b>
617,What do you think your friend meant?,NA,It is big  relative to other,images/bird-parade-eagle.png,images/eagle.png,20,NA,NA,NA,none,2,birds,Jessica,NA,NA,1,yes,"Your friend runs far ahead of you, and you see him in the distance:",prenominal,NA,34,eagles,NA,1,NA,NA,graduated_college,big,NA,English,male,NA,NA,You and your friend see the following:,3,1571837621927,NA,NA,1,NA,NA,NA,congr,custom_main_text1,Your friend says: <br/><b>That's a big eagle.</b>
617,NA,chihuaua,NA,NA,NA,20,warmup/doberman.png,chihuahua,This is a,none,2,dogs,Jessica,NA,doberman,NA,yes,Please label the pictures below.,NA,NA,34,NA,NA,NA,warmup/chihuahua.jpg,dogs,graduated_college,NA,NA,English,male,NA,dogs,NA,1,1571837621927,1,This is a,1,These are both,doberman,NA,NA,warmup2,NA
617,NA,chihuahua,NA,NA,NA,20,warmup/doberman.png,chihuahua,This is a,none,2,dogs,Jessica,NA,doberman,NA,yes,Please label the pictures below.,NA,NA,34,NA,NA,NA,warmup/chihuahua.jpg,dogs,graduated_college,NA,NA,English,male,NA,dogs,NA,1,1571837621927,2,This is a,1,These are both,doberman,NA,NA,warmup2,NA
617,NA,daneline,NA,NA,NA,20,warmup/sunflower.png,dandelion,This is a,none,2,flowers,Jessica,NA,sunflower,NA,yes,Please label the pictures below.,NA,NA,34,NA,NA,NA,warmup/dandelion.jpg,flowers,graduated_college,NA,NA,English,male,NA,flowers,NA,2,1571837621927,1,This is a,1,These are both,sunflower,NA,NA,warmup2,NA
617,NA,dandelion,NA,NA,NA,20,warmup/sunflower.png,dandelion,This is a,none,2,flowers,Jessica,NA,sunflower,NA,yes,Please label the pictures below.,NA,NA,34,NA,NA,NA,warmup/dandelion.jpg,flowers,graduated_college,NA,NA,English,male,NA,flowers,NA,2,1571837621927,2,This is a,1,These are both,sunflower,NA,NA,warmup2,NA
617,NA,pug,NA,NA,NA,20,warmup/great-dane.jpg,pug,This is a,none,2,dogs,Jessica,NA,great dane,NA,yes,Please label the pictures below.,NA,NA,34,NA,NA,NA,warmup/pug.jpg,dogs,graduated_college,NA,NA,English,male,NA,dogs,NA,3,1571837621927,1,This is a,1,These are both,scoob,NA,NA,warmup2,NA
617,NA,pug,NA,NA,NA,20,warmup/great-dane.jpg,pug,This is a,none,2,dogs,Jessica,NA,great dane,NA,yes,Please label the pictures below.,NA,NA,34,NA,NA,NA,warmup/pug.jpg,dogs,graduated_college,NA,NA,English,male,NA,dogs,NA,3,1571837621927,2,This is a,1,These are both,great dane,NA,NA,warmup2,NA
617,What do you think your friend meant?,NA,It is big  relative to other,images/dog-parade-basic2.png,images/great-dane.png,20,NA,NA,NA,none,2,dogs2,Jessica,NA,NA,0,yes,"Your friend runs far ahead of you, and you see him in the distance:",prenominal,NA,34,smaller dogs,NA,1,NA,NA,graduated_college,big,NA,English,male,NA,NA,You and your friend see the following:,1,1571837621927,NA,NA,1,NA,NA,NA,basic,custom_main_text2,Your friend says: <br/><b>That's a big great dane.</b>
617,What do you think your friend meant?,NA,It is small  relative to other,images/flower-parade-basic.png,images/dandelion.png,20,NA,NA,NA,none,2,flowers,Jessica,NA,NA,0,yes,"Your friend runs far ahead of you, and you see him in the distance:",prenominal,NA,34,flowers,NA,1,NA,NA,graduated_college,small,NA,English,male,NA,NA,You and your friend see the following:,2,1571837621927,NA,NA,1,NA,NA,NA,basic,custom_main_text2,Your friend says: <br/><b>That's a small dandelion.</b>
617,What do you think your friend meant?,NA,It is small  relative to other,images/dog-parade-basic.png,images/chihuahua.png,20,NA,NA,NA,none,2,dogs1,Jessica,NA,NA,0,yes,"Your friend runs far ahead of you, and you see him in the distance:",prenominal,NA,34,dogs,NA,1,NA,NA,graduated_college,small,NA,English,male,NA,NA,You and your friend see the following:,3,1571837621927,NA,NA,1,NA,NA,NA,basic,custom_main_text2,Your friend says: <br/><b>That's a small chihuahua.</b>
616,<i>What do you think Speaker A meant? </i>,NA,The Empire State Building is tall relative to other,NA,NA,20,NA,NA,NA,none,2,NA,margaret,1,NA,NA,yes,NA,NA,"<b> Speaker A: ""The Empire State Building is tall.""</b>",55,buildings,Thanks!,NA,NA,NA,graduated_college,NA,comp_class_warmup,english,female,NA,NA,In the main trials you will be asked to rephrase something a person said. The utterance will contain a word that is <i>relative</i> and your task is to figure out what it is relative to. <br /> <br /> For example: <br /><br />,1,1571838574625,1,NA,1,NA,NA,"buildings, skyscrapers, houses, constructions (choose one)",NA,comp_class_warmup,NA
616,NA,dandelion,NA,NA,NA,20,warmup/sunflower.png,dandelion,This is a,none,2,flowers,margaret,NA,sunflower,NA,yes,Please label the pictures below.,NA,NA,55,NA,Thanks!,NA,warmup/dandelion.jpg,flowers,graduated_college,NA,NA,english,female,NA,flowers,NA,1,1571838574625,1,This is a,1,These are both,sunflower,NA,NA,warmup1,NA
616,NA,chihuahua,NA,NA,NA,20,warmup/doberman.png,chihuahua,This is a,none,2,dogs,margaret,NA,doberman,NA,yes,Please label the pictures below.,NA,NA,55,NA,Thanks!,NA,warmup/chihuahua.jpg,dogs,graduated_college,NA,NA,english,female,NA,dogs,NA,2,1571838574625,1,This is a,1,These are both,doberman,NA,NA,warmup1,NA
616,NA,dolphin,NA,NA,NA,20,warmup/goldfish.png,swordfish,This is a,none,2,fish,margaret,NA,goldfish,NA,yes,Please label the pictures below.,NA,NA,55,NA,Thanks!,NA,warmup/swordfish.jpg,fish,graduated_college,NA,NA,english,female,NA,fish,NA,3,1571838574625,1,This is a,1,These are both,goldfish,NA,NA,warmup1,NA
616,NA,swordfish,NA,NA,NA,20,warmup/goldfish.png,swordfish,This is a,none,2,fish,margaret,NA,goldfish,NA,yes,Please label the pictures below.,NA,NA,55,NA,Thanks!,NA,warmup/swordfish.jpg,fish,graduated_college,NA,NA,english,female,NA,fish,NA,3,1571838574625,2,This is a,1,These are both,goldfish,NA,NA,warmup1,NA
616,What do you think your friend meant?,NA,It is big  relative to other,images/dog-parade-doberman.png,images/doberman.png,20,NA,NA,NA,none,2,dogs1,margaret,NA,NA,1,yes,"Your friend runs far ahead of you, and you see him in the distance:",prenominal,NA,55,dobermans,Thanks!,1,NA,NA,graduated_college,big,NA,english,female,NA,NA,You and your friend see the following:,1,1571838574625,NA,NA,1,NA,NA,NA,congr,custom_main_text1,Your friend says: <br/><b>That's a big doberman.</b>
616,What do you think your friend meant?,NA,It is big  relative to other,images/fish-parade-basic.png,images/swordfish.png,20,NA,NA,NA,none,2,fish,margaret,NA,NA,0,yes,"Your friend runs far ahead of you, and you see him in the distance:",prenominal,NA,55,fish,Thanks!,1,NA,NA,graduated_college,big,NA,english,female,NA,NA,You and your friend see the following:,2,1571838574625,NA,NA,1,NA,NA,NA,basic,custom_main_text1,Your friend says: <br/><b>That's a big swordfish.</b>
616,What do you think your friend meant?,NA,It is big  relative to other,images/flower-parade-basic.png,images/sunflower.png,20,NA,NA,NA,none,2,flowers,margaret,NA,NA,0,yes,"Your friend runs far ahead of you, and you see him in the distance:",prenominal,NA,55,flowers,Thanks!,1,NA,NA,graduated_college,big,NA,english,female,NA,NA,You and your friend see the following:,3,1571838574625,NA,NA,1,NA,NA,NA,basic,custom_main_text1,Your friend says: <br/><b>That's a big sunflower.</b>
616,NA,pug,NA,NA,NA,20,warmup/great-dane.jpg,pug,This is a,none,2,dogs,margaret,NA,great dane,NA,yes,Please label the pictures below.,NA,NA,55,NA,Thanks!,NA,warmup/pug.jpg,dogs,graduated_college,NA,NA,english,female,NA,dogs,NA,1,1571838574625,1,This is a,1,These are both,hound,NA,NA,warmup2,NA
616,NA,pug,NA,NA,NA,20,warmup/great-dane.jpg,pug,This is a,none,2,dogs,margaret,NA,great dane,NA,yes,Please label the pictures below.,NA,NA,55,NA,Thanks!,NA,warmup/pug.jpg,dogs,graduated_college,NA,NA,english,female,NA,dogs,NA,1,1571838574625,2,This is a,1,These are both,great dane,NA,NA,warmup2,NA
616,NA,redwood,NA,NA,NA,20,warmup/bonsai.jpg,redwood or sequoia (choose one),This is a,none,2,trees,margaret,NA,bonsai,NA,yes,Please label the pictures below.,NA,NA,55,NA,Thanks!,NA,warmup/sequoia.png,trees,graduated_college,NA,NA,english,female,NA,trees,NA,2,1571838574625,1,This is a,1,These are both,bonsai,NA,NA,warmup2,NA
616,NA,hummingbird,NA,NA,NA,20,warmup/eagle.jpg,hummingbird,This is a,none,2,birds,margaret,NA,eagle,NA,yes,Please label the pictures below.,NA,NA,55,NA,Thanks!,NA,warmup/colibri.jpg,birds,graduated_college,NA,NA,english,female,NA,birds,NA,3,1571838574625,1,This is an,1,These are both,eagle,NA,NA,warmup2,NA
616,What do you think your friend meant?,NA,It is small  relative to other,images/bird-parade-hummingbird.png,images/hummingbird.png,20,NA,NA,NA,none,2,birds,margaret,NA,NA,1,yes,"Your friend runs far ahead of you, and you see him in the distance:",prenominal,NA,55,hummingbirds,Thanks!,1,NA,NA,graduated_college,small,NA,english,female,NA,NA,You and your friend see the following:,1,1571838574625,NA,NA,1,NA,NA,NA,congr,custom_main_text2,Your friend says: <br/><b>That's a small hummingbird.</b>
616,What do you think your friend meant?,NA,It is small  relative to other,images/tree-parade-bonsai.png,images/bonsai.png,20,NA,NA,NA,none,2,trees,margaret,NA,NA,1,yes,"Your friend runs far ahead of you, and you see him in the distance:",prenominal,NA,55,bonsai,Thanks!,1,NA,NA,graduated_college,small,NA,english,female,NA,NA,You and your friend see the following:,2,1571838574625,NA,NA,1,NA,NA,NA,congr,custom_main_text2,Your friend says: <br/><b>That's a small bonsai.</b>
616,What do you think your friend meant?,NA,It is small  relative to other,images/dog-parade-basic2.png,images/pug.png,20,NA,NA,NA,none,2,dogs2,margaret,NA,NA,0,yes,"Your friend runs far ahead of you, and you see him in the distance:",prenominal,NA,55,dogs,Thanks!,1,NA,NA,graduated_college,small,NA,english,female,NA,NA,You and your friend see the following:,3,1571838574625,NA,NA,1,NA,NA,NA,basic,custom_main_text2,Your friend says: <br/><b>That's a small pug.</b>
613,<i>What do you think Speaker A meant? </i>,NA,The Empire State Building is tall relative to other,NA,NA,20,NA,NA,NA,no,1,NA,jessica,1,NA,NA,NA,NA,NA,"<b> Speaker A: ""The Empire State Building is tall.""</b>",37,buildings,NA,NA,NA,NA,graduated_high_school,NA,comp_class_warmup,english,female,NA,NA,In the main trials you will be asked to rephrase something a person said. The utterance will contain a word that is <i>relative</i> and your task is to figure out what it is relative to. <br /> <br /> For example: <br /><br />,1,1571838322214,1,NA,1,NA,NA,"buildings, skyscrapers, houses, constructions (choose one)",NA,comp_class_warmup,NA
613,NA,dandelion,NA,NA,NA,20,warmup/sunflower.png,dandelion,This is a,no,1,flowers,jessica,NA,sunflower,NA,NA,Please label the pictures below.,NA,NA,37,NA,NA,NA,warmup/dandelion.jpg,flowers,graduated_high_school,NA,NA,english,female,NA,flowers,NA,1,1571838322214,1,This is a,1,These are both,sunflower,NA,NA,warmup1,NA
613,NA,pug,NA,NA,NA,20,warmup/great-dane.jpg,pug,This is a,no,1,dogs,jessica,NA,great dane,NA,NA,Please label the pictures below.,NA,NA,37,NA,NA,NA,warmup/pug.jpg,dogs,graduated_high_school,NA,NA,english,female,NA,dogs,NA,2,1571838322214,1,This is a,1,These are both,great dane,NA,NA,warmup1,NA
613,NA,hummingbird,NA,NA,NA,20,warmup/eagle.jpg,hummingbird,This is a,no,1,birds,jessica,NA,eagle,NA,NA,Please label the pictures below.,NA,NA,37,NA,NA,NA,warmup/colibri.jpg,birds,graduated_high_school,NA,NA,english,female,NA,birds,NA,3,1571838322214,1,This is an,1,These are both,eagle,NA,NA,warmup1,NA
613,What do you think your friend meant?,NA,It is small  relative to other,images/flower-parade-dandelion.png,images/dandelion.png,20,NA,NA,NA,no,1,flowers,jessica,NA,NA,1,NA,"Your friend runs far ahead of you, and you see him in the distance:",prenominal,NA,37,dandelions,NA,1,NA,NA,graduated_high_school,small,NA,english,female,NA,NA,You and your friend see the following:,1,1571838322214,NA,NA,1,NA,NA,NA,congr,custom_main_text1,Your friend says: <br/><b>That's a small dandelion.</b>
613,What do you think your friend meant?,NA,It is small  relative to other,images/bird-parade-hummingbird.png,images/hummingbird.png,20,NA,NA,NA,no,1,birds,jessica,NA,NA,1,NA,"Your friend runs far ahead of you, and you see him in the distance:",prenominal,NA,37,hummingbrids,NA,1,NA,NA,graduated_high_school,small,NA,english,female,NA,NA,You and your friend see the following:,2,1571838322214,NA,NA,1,NA,NA,NA,congr,custom_main_text1,Your friend says: <br/><b>That's a small hummingbird.</b>
613,What do you think your friend meant?,NA,It is small  relative to other,images/dog-parade-basic2.png,images/pug.png,20,NA,NA,NA,no,1,dogs2,jessica,NA,NA,0,NA,"Your friend runs far ahead of you, and you see him in the distance:",prenominal,NA,37,dogs,NA,1,NA,NA,graduated_high_school,small,NA,english,female,NA,NA,You and your friend see the following:,3,1571838322214,NA,NA,1,NA,NA,NA,basic,custom_main_text1,Your friend says: <br/><b>That's a small pug.</b>
613,NA,chihuahua,NA,NA,NA,20,warmup/doberman.png,chihuahua,This is a,no,1,dogs,jessica,NA,doberman,NA,NA,Please label the pictures below.,NA,NA,37,NA,NA,NA,warmup/chihuahua.jpg,dogs,graduated_high_school,NA,NA,english,female,NA,dogs,NA,1,1571838322214,1,This is a,1,These are both,doberman,NA,NA,warmup2,NA
613,NA,redwood,NA,NA,NA,20,warmup/bonsai.jpg,redwood or sequoia (choose one),This is a,no,1,trees,jessica,NA,bonsai,NA,NA,Please label the pictures below.,NA,NA,37,NA,NA,NA,warmup/sequoia.png,trees,graduated_high_school,NA,NA,english,female,NA,trees,NA,2,1571838322214,1,This is a,1,These are both,bonsai,NA,NA,warmup2,NA
613,NA,swordfish,NA,NA,NA,20,warmup/goldfish.png,swordfish,This is a,no,1,fish,jessica,NA,goldfish,NA,NA,Please label the pictures below.,NA,NA,37,NA,NA,NA,warmup/swordfish.jpg,fish,graduated_high_school,NA,NA,english,female,NA,fish,NA,3,1571838322214,1,This is a,1,These are both,goldfish,NA,NA,warmup2,NA
613,What do you think your friend meant?,NA,It is big  relative to other,images/tree-parade-basic.png,images/redwood.png,20,NA,NA,NA,no,1,trees,jessica,NA,NA,0,NA,"Your friend runs far ahead of you, and you see him in the distance:",prenominal,NA,37,trees,NA,1,NA,NA,graduated_high_school,big,NA,english,female,NA,NA,You and your friend see the following:,1,1571838322214,NA,NA,1,NA,NA,NA,basic,custom_main_text2,Your friend says: <br/><b>That's a big redwood.</b>
613,What do you think your friend meant?,NA,It is big  relative to other,images/fish-parade-swordfish.png,images/swordfish.png,20,NA,NA,NA,no,1,fish,jessica,NA,NA,1,NA,"Your friend runs far ahead of you, and you see him in the distance:",prenominal,NA,37,swordfish,NA,1,NA,NA,graduated_high_school,big,NA,english,female,NA,NA,You and your friend see the following:,2,1571838322214,NA,NA,1,NA,NA,NA,congr,custom_main_text2,Your friend says: <br/><b>That's a big swordfish.</b>
613,What do you think your friend meant?,NA,It is big  relative to other,images/dog-parade-basic.png,images/doberman.png,20,NA,NA,NA,no,1,dogs1,jessica,NA,NA,0,NA,"Your friend runs far ahead of you, and you see him in the distance:",prenominal,NA,37,dogs,NA,1,NA,NA,graduated_high_school,big,NA,english,female,NA,NA,You and your friend see the following:,3,1571838322214,NA,NA,1,NA,NA,NA,basic,custom_main_text2,Your friend says: <br/><b>That's a big doberman.</b>
611,<i>What do you think Speaker A meant? </i>,NA,The Empire State Building is tall relative to other,NA,NA,20,NA,NA,NA,NA,NA,NA,Susan,1,NA,NA,yes,NA,NA,"<b> Speaker A: ""The Empire State Building is tall.""</b>",24,buildings,NA,NA,NA,NA,NA,NA,comp_class_warmup,NA,NA,NA,NA,In the main trials you will be asked to rephrase something a person said. The utterance will contain a word that is <i>relative</i> and your task is to figure out what it is relative to. <br /> <br /> For example: <br /><br />,1,1571838102575,1,NA,NA,NA,NA,"buildings, skyscrapers, houses, constructions (choose one)",NA,comp_class_warmup,NA
611,NA,daisy,NA,NA,NA,20,warmup/sunflower.png,dandelion,This is a,NA,NA,flowers,Susan,NA,sunflower,NA,yes,Please label the pictures below.,NA,NA,24,NA,NA,NA,warmup/dandelion.jpg,flowers,NA,NA,NA,NA,NA,NA,flowers,NA,1,1571838102575,1,This is a,NA,These are both,sunflower,NA,NA,warmup1,NA
611,NA,dandelion,NA,NA,NA,20,warmup/sunflower.png,dandelion,This is a,NA,NA,flowers,Susan,NA,sunflower,NA,yes,Please label the pictures below.,NA,NA,24,NA,NA,NA,warmup/dandelion.jpg,flowers,NA,NA,NA,NA,NA,NA,flowers,NA,1,1571838102575,2,This is a,NA,These are both,sunflower,NA,NA,warmup1,NA
611,NA,swordfish,NA,NA,NA,20,warmup/goldfish.png,swordfish,This is a,NA,NA,fish,Susan,NA,goldfish,NA,yes,Please label the pictures below.,NA,NA,24,NA,NA,NA,warmup/swordfish.jpg,fish,NA,NA,NA,NA,NA,NA,fish,NA,2,1571838102575,1,This is a,NA,These are both,goldfish,NA,NA,warmup1,NA
611,NA,chiuaua,NA,NA,NA,20,warmup/doberman.png,chihuahua,This is a,NA,NA,dogs,Susan,NA,doberman,NA,yes,Please label the pictures below.,NA,NA,24,NA,NA,NA,warmup/chihuahua.jpg,dogs,NA,NA,NA,NA,NA,NA,dogs,NA,3,1571838102575,1,This is a,NA,These are both,dog,NA,NA,warmup1,NA
611,NA,chihuahua,NA,NA,NA,20,warmup/doberman.png,chihuahua,This is a,NA,NA,dogs,Susan,NA,doberman,NA,yes,Please label the pictures below.,NA,NA,24,NA,NA,NA,warmup/chihuahua.jpg,dogs,NA,NA,NA,NA,NA,NA,dogs,NA,3,1571838102575,2,This is a,NA,These are both,doberman,NA,NA,warmup1,NA
611,What do you think your friend meant?,NA,It is small  relative to other,images/flower-parade-basic.png,images/dandelion.png,20,NA,NA,NA,NA,NA,flowers,Susan,NA,NA,0,yes,"Your friend runs far ahead of you, and you see him in the distance:",prenominal,NA,24,flowers,NA,1,NA,NA,NA,small,NA,NA,NA,NA,NA,You and your friend see the following:,1,1571838102575,NA,NA,NA,NA,NA,NA,basic,custom_main_text1,Your friend says: <br/><b>That's a small dandelion.</b>
611,What do you think your friend meant?,NA,It is small  relative to other,images/fish-parade-goldfish.png,images/goldfish.png,20,NA,NA,NA,NA,NA,fish,Susan,NA,NA,1,yes,"Your friend runs far ahead of you, and you see him in the distance:",prenominal,NA,24,fish,NA,1,NA,NA,NA,small,NA,NA,NA,NA,NA,You and your friend see the following:,2,1571838102575,NA,NA,NA,NA,NA,NA,congr,custom_main_text1,Your friend says: <br/><b>That's a small goldfish.</b>
611,What do you think your friend meant?,NA,It is big  relative to other,images/dog-parade-basic.png,images/doberman.png,20,NA,NA,NA,NA,NA,dogs1,Susan,NA,NA,0,yes,"Your friend runs far ahead of you, and you see him in the distance:",prenominal,NA,24,dogs,NA,1,NA,NA,NA,big,NA,NA,NA,NA,NA,You and your friend see the following:,3,1571838102575,NA,NA,NA,NA,NA,NA,basic,custom_main_text1,Your friend says: <br/><b>That's a big doberman.</b>
611,NA,hummingbird,NA,NA,NA,20,warmup/eagle.jpg,hummingbird,This is a,NA,NA,birds,Susan,NA,eagle,NA,yes,Please label the pictures below.,NA,NA,24,NA,NA,NA,warmup/colibri.jpg,birds,NA,NA,NA,NA,NA,NA,birds,NA,1,1571838102575,1,This is an,NA,These are both,eagle,NA,NA,warmup2,NA
611,NA,tree,NA,NA,NA,20,warmup/bonsai.jpg,redwood or sequoia (choose one),This is a,NA,NA,trees,Susan,NA,bonsai,NA,yes,Please label the pictures below.,NA,NA,24,NA,NA,NA,warmup/sequoia.png,trees,NA,NA,NA,NA,NA,NA,trees,NA,2,1571838102575,1,This is a,NA,These are both,tree,NA,NA,warmup2,NA
611,NA,redwood,NA,NA,NA,20,warmup/bonsai.jpg,redwood or sequoia (choose one),This is a,NA,NA,trees,Susan,NA,bonsai,NA,yes,Please label the pictures below.,NA,NA,24,NA,NA,NA,warmup/sequoia.png,trees,NA,NA,NA,NA,NA,NA,trees,NA,2,1571838102575,2,This is a,NA,These are both,bonsai,NA,NA,warmup2,NA
611,NA,pug,NA,NA,NA,20,warmup/great-dane.jpg,pug,This is a,NA,NA,dogs,Susan,NA,great dane,NA,yes,Please label the pictures below.,NA,NA,24,NA,NA,NA,warmup/pug.jpg,dogs,NA,NA,NA,NA,NA,NA,dogs,NA,3,1571838102575,1,This is a,NA,These are both,dog,NA,NA,warmup2,NA
611,NA,pug,NA,NA,NA,20,warmup/great-dane.jpg,pug,This is a,NA,NA,dogs,Susan,NA,great dane,NA,yes,Please label the pictures below.,NA,NA,24,NA,NA,NA,warmup/pug.jpg,dogs,NA,NA,NA,NA,NA,NA,dogs,NA,3,1571838102575,2,This is a,NA,These are both,great dane,NA,NA,warmup2,NA
611,What do you think your friend meant?,NA,It is small  relative to other,images/bird-parade-basic.png,images/hummingbird.png,20,NA,NA,NA,NA,NA,birds,Susan,NA,NA,0,yes,"Your friend runs far ahead of you, and you see him in the distance:",prenominal,NA,24,birds,NA,1,NA,NA,NA,small,NA,NA,NA,NA,NA,You and your friend see the following:,1,1571838102575,NA,NA,NA,NA,NA,NA,basic,custom_main_text2,Your friend says: <br/><b>That's a small hummingbird.</b>
611,What do you think your friend meant?,NA,It is big  relative to other,images/dog-parade-great-dane.png,images/great-dane.png,20,NA,NA,NA,NA,NA,dogs2,Susan,NA,NA,1,yes,"Your friend runs far ahead of you, and you see him in the distance:",prenominal,NA,24,dogs,NA,1,NA,NA,NA,big,NA,NA,NA,NA,NA,You and your friend see the following:,2,1571838102575,NA,NA,NA,NA,NA,NA,congr,custom_main_text2,Your friend says: <br/><b>That's a big great dane.</b>
611,What do you think your friend meant?,NA,It is big  relative to other,images/tree-parade-redwood.png,images/redwood.png,20,NA,NA,NA,NA,NA,trees,Susan,NA,NA,1,yes,"Your friend runs far ahead of you, and you see him in the distance:",prenominal,NA,24,trees,NA,1,NA,NA,NA,big,NA,NA,NA,NA,NA,You and your friend see the following:,3,1571838102575,NA,NA,NA,NA,NA,NA,congr,custom_main_text2,Your friend says: <br/><b>That's a big redwood.</b>
609,<i>What do you think Speaker A meant? </i>,NA,The Empire State Building is tall relative to other,NA,NA,20,NA,NA,NA,No,1,NA,margaret,1,NA,NA,yes,NA,NA,"<b> Speaker A: ""The Empire State Building is tall.""</b>",43,buildings,n/a,NA,NA,NA,graduated_college,NA,comp_class_warmup,English,female,NA,NA,In the main trials you will be asked to rephrase something a person said. The utterance will contain a word that is <i>relative</i> and your task is to figure out what it is relative to. <br /> <br /> For example: <br /><br />,1,1571837704682,1,NA,1,NA,NA,"buildings, skyscrapers, houses, constructions (choose one)",NA,comp_class_warmup,NA
609,NA,chihuahua,NA,NA,NA,20,warmup/doberman.png,chihuahua,This is a,No,1,dogs,margaret,NA,doberman,NA,yes,Please label the pictures below.,NA,NA,43,NA,n/a,NA,warmup/chihuahua.jpg,dogs,graduated_college,NA,NA,English,female,NA,dogs,NA,1,1571837704682,1,This is a,1,These are both,doberman,NA,NA,warmup1,NA
609,NA,tall tree,NA,NA,NA,20,warmup/bonsai.jpg,redwood or sequoia (choose one),This is a,No,1,trees,margaret,NA,bonsai,NA,yes,Please label the pictures below.,NA,NA,43,NA,n/a,NA,warmup/sequoia.png,trees,graduated_college,NA,NA,English,female,NA,trees,NA,2,1571837704682,1,This is a,1,These are both,bonsai,NA,NA,warmup1,NA
609,NA,redwood,NA,NA,NA,20,warmup/bonsai.jpg,redwood or sequoia (choose one),This is a,No,1,trees,margaret,NA,bonsai,NA,yes,Please label the pictures below.,NA,NA,43,NA,n/a,NA,warmup/sequoia.png,trees,graduated_college,NA,NA,English,female,NA,trees,NA,2,1571837704682,2,This is a,1,These are both,bonsai,NA,NA,warmup1,NA
609,NA,shark,NA,NA,NA,20,warmup/goldfish.png,swordfish,This is a,No,1,fish,margaret,NA,goldfish,NA,yes,Please label the pictures below.,NA,NA,43,NA,n/a,NA,warmup/swordfish.jpg,fish,graduated_college,NA,NA,English,female,NA,fish,NA,3,1571837704682,1,This is a,1,These are both,goldfish,NA,NA,warmup1,NA
609,NA,swordfish,NA,NA,NA,20,warmup/goldfish.png,swordfish,This is a,No,1,fish,margaret,NA,goldfish,NA,yes,Please label the pictures below.,NA,NA,43,NA,n/a,NA,warmup/swordfish.jpg,fish,graduated_college,NA,NA,English,female,NA,fish,NA,3,1571837704682,2,This is a,1,These are both,goldfish,NA,NA,warmup1,NA
609,What do you think your friend meant?,NA,It is small  relative to other,images/fish-parade-basic.png,images/goldfish.png,20,NA,NA,NA,No,1,fish,margaret,NA,NA,0,yes,"Your friend runs far ahead of you, and you see him in the distance:",prenominal,NA,43,goldfish,n/a,1,NA,NA,graduated_college,small,NA,English,female,NA,NA,You and your friend see the following:,1,1571837704682,NA,NA,1,NA,NA,NA,basic,custom_main_text1,Your friend says: <br/><b>That's a small goldfish.</b>
609,What do you think your friend meant?,NA,It is small  relative to other,images/tree-parade-bonsai.png,images/bonsai.png,20,NA,NA,NA,No,1,trees,margaret,NA,NA,1,yes,"Your friend runs far ahead of you, and you see him in the distance:",prenominal,NA,43,bonsai,n/a,1,NA,NA,graduated_college,small,NA,English,female,NA,NA,You and your friend see the following:,2,1571837704682,NA,NA,1,NA,NA,NA,congr,custom_main_text1,Your friend says: <br/><b>That's a small bonsai.</b>
609,What do you think your friend meant?,NA,It is big  relative to other,images/dog-parade-basic.png,images/doberman.png,20,NA,NA,NA,No,1,dogs1,margaret,NA,NA,0,yes,"Your friend runs far ahead of you, and you see him in the distance:",prenominal,NA,43,dobermans,n/a,1,NA,NA,graduated_college,big,NA,English,female,NA,NA,You and your friend see the following:,3,1571837704682,NA,NA,1,NA,NA,NA,basic,custom_main_text1,Your friend says: <br/><b>That's a big doberman.</b>
609,NA,pug,NA,NA,NA,20,warmup/great-dane.jpg,pug,This is a,No,1,dogs,margaret,NA,great dane,NA,yes,Please label the pictures below.,NA,NA,43,NA,n/a,NA,warmup/pug.jpg,dogs,graduated_college,NA,NA,English,female,NA,dogs,NA,1,1571837704682,1,This is a,1,These are both,labrador,NA,NA,warmup2,NA
609,NA,pug,NA,NA,NA,20,warmup/great-dane.jpg,pug,This is a,No,1,dogs,margaret,NA,great dane,NA,yes,Please label the pictures below.,NA,NA,43,NA,n/a,NA,warmup/pug.jpg,dogs,graduated_college,NA,NA,English,female,NA,dogs,NA,1,1571837704682,2,This is a,1,These are both,great dane,NA,NA,warmup2,NA
609,NA,daisy,NA,NA,NA,20,warmup/sunflower.png,dandelion,This is a,No,1,flowers,margaret,NA,sunflower,NA,yes,Please label the pictures below.,NA,NA,43,NA,n/a,NA,warmup/dandelion.jpg,flowers,graduated_college,NA,NA,English,female,NA,flowers,NA,2,1571837704682,1,This is a,1,These are both,sunflower,NA,NA,warmup2,NA
609,NA,dandelion,NA,NA,NA,20,warmup/sunflower.png,dandelion,This is a,No,1,flowers,margaret,NA,sunflower,NA,yes,Please label the pictures below.,NA,NA,43,NA,n/a,NA,warmup/dandelion.jpg,flowers,graduated_college,NA,NA,English,female,NA,flowers,NA,2,1571837704682,2,This is a,1,These are both,sunflower,NA,NA,warmup2,NA
609,NA,hummingbird,NA,NA,NA,20,warmup/eagle.jpg,hummingbird,This is a,No,1,birds,margaret,NA,eagle,NA,yes,Please label the pictures below.,NA,NA,43,NA,n/a,NA,warmup/colibri.jpg,birds,graduated_college,NA,NA,English,female,NA,birds,NA,3,1571837704682,1,This is an,1,These are both,eagle,NA,NA,warmup2,NA
609,What do you think your friend meant?,NA,It is big  relative to other,images/bird-parade-eagle.png,images/eagle.png,20,NA,NA,NA,No,1,birds,margaret,NA,NA,1,yes,"Your friend runs far ahead of you, and you see him in the distance:",prenominal,NA,43,eagles,n/a,1,NA,NA,graduated_college,big,NA,English,female,NA,NA,You and your friend see the following:,1,1571837704682,NA,NA,1,NA,NA,NA,congr,custom_main_text2,Your friend says: <br/><b>That's a big eagle.</b>
609,What do you think your friend meant?,NA,It is small  relative to other,images/flower-parade-basic.png,images/dandelion.png,20,NA,NA,NA,No,1,flowers,margaret,NA,NA,0,yes,"Your friend runs far ahead of you, and you see him in the distance:",prenominal,NA,43,dandelions,n/a,1,NA,NA,graduated_college,small,NA,English,female,NA,NA,You and your friend see the following:,2,1571837704682,NA,NA,1,NA,NA,NA,basic,custom_main_text2,Your friend says: <br/><b>That's a small dandelion.</b>
609,What do you think your friend meant?,NA,It is big  relative to other,images/dog-parade-great-dane.png,images/great-dane.png,20,NA,NA,NA,No,1,dogs2,margaret,NA,NA,1,yes,"Your friend runs far ahead of you, and you see him in the distance:",prenominal,NA,43,great danes,n/a,1,NA,NA,graduated_college,big,NA,English,female,NA,NA,You and your friend see the following:,3,1571837704682,NA,NA,1,NA,NA,NA,congr,custom_main_text2,Your friend says: <br/><b>That's a big great dane.</b>
604,<i>What do you think Speaker A meant? </i>,NA,The Empire State Building is tall relative to other,NA,NA,20,NA,NA,NA,No,2,NA,margaret,1,NA,NA,yes,NA,NA,"<b> Speaker A: ""The Empire State Building is tall.""</b>",36,buildings,NA,NA,NA,NA,some_college,NA,comp_class_warmup,english,female,NA,NA,In the main trials you will be asked to rephrase something a person said. The utterance will contain a word that is <i>relative</i> and your task is to figure out what it is relative to. <br /> <br /> For example: <br /><br />,1,1571837551205,1,NA,1,NA,NA,"buildings, skyscrapers, houses, constructions (choose one)",NA,comp_class_warmup,NA
604,NA,swordfish,NA,NA,NA,20,warmup/goldfish.png,swordfish,This is a,No,2,fish,margaret,NA,goldfish,NA,yes,Please label the pictures below.,NA,NA,36,NA,NA,NA,warmup/swordfish.jpg,fish,some_college,NA,NA,english,female,NA,fish,NA,1,1571837551205,1,This is a,1,These are both,goldfish,NA,NA,warmup1,NA
604,NA,pug,NA,NA,NA,20,warmup/great-dane.jpg,pug,This is a,No,2,dogs,margaret,NA,great dane,NA,yes,Please label the pictures below.,NA,NA,36,NA,NA,NA,warmup/pug.jpg,dogs,some_college,NA,NA,english,female,NA,dogs,NA,2,1571837551205,1,This is a,1,These are both,great dane,NA,NA,warmup1,NA
604,NA,hummingbird,NA,NA,NA,20,warmup/eagle.jpg,hummingbird,This is a,No,2,birds,margaret,NA,eagle,NA,yes,Please label the pictures below.,NA,NA,36,NA,NA,NA,warmup/colibri.jpg,birds,some_college,NA,NA,english,female,NA,birds,NA,3,1571837551205,1,This is an,1,These are both,eagle,NA,NA,warmup1,NA
604,What do you think your friend meant?,NA,It is big  relative to other,images/bird-parade-eagle.png,images/eagle.png,20,NA,NA,NA,No,2,birds,margaret,NA,NA,1,yes,"Your friend runs far ahead of you, and you see him in the distance:",prenominal,NA,36,birds,NA,1,NA,NA,some_college,big,NA,english,female,NA,NA,You and your friend see the following:,1,1571837551205,NA,NA,1,NA,NA,NA,congr,custom_main_text1,Your friend says: <br/><b>That's a big eagle.</b>
604,What do you think your friend meant?,NA,It is small  relative to other,images/fish-parade-goldfish.png,images/goldfish.png,20,NA,NA,NA,No,2,fish,margaret,NA,NA,1,yes,"Your friend runs far ahead of you, and you see him in the distance:",prenominal,NA,36,goldfish,NA,1,NA,NA,some_college,small,NA,english,female,NA,NA,You and your friend see the following:,2,1571837551205,NA,NA,1,NA,NA,NA,congr,custom_main_text1,Your friend says: <br/><b>That's a small goldfish.</b>
604,What do you think your friend meant?,NA,It is big  relative to other,images/dog-parade-basic2.png,images/great-dane.png,20,NA,NA,NA,No,2,dogs2,margaret,NA,NA,0,yes,"Your friend runs far ahead of you, and you see him in the distance:",prenominal,NA,36,dogs,NA,1,NA,NA,some_college,big,NA,english,female,NA,NA,You and your friend see the following:,3,1571837551205,NA,NA,1,NA,NA,NA,basic,custom_main_text1,Your friend says: <br/><b>That's a big great dane.</b>
604,NA,chihuahua,NA,NA,NA,20,warmup/doberman.png,chihuahua,This is a,No,2,dogs,margaret,NA,doberman,NA,yes,Please label the pictures below.,NA,NA,36,NA,NA,NA,warmup/chihuahua.jpg,dogs,some_college,NA,NA,english,female,NA,dogs,NA,1,1571837551205,1,This is a,1,These are both,doberman,NA,NA,warmup2,NA
604,NA,dandilion,NA,NA,NA,20,warmup/sunflower.png,dandelion,This is a,No,2,flowers,margaret,NA,sunflower,NA,yes,Please label the pictures below.,NA,NA,36,NA,NA,NA,warmup/dandelion.jpg,flowers,some_college,NA,NA,english,female,NA,flowers,NA,2,1571837551205,1,This is a,1,These are both,sunflower,NA,NA,warmup2,NA
604,NA,dandelion,NA,NA,NA,20,warmup/sunflower.png,dandelion,This is a,No,2,flowers,margaret,NA,sunflower,NA,yes,Please label the pictures below.,NA,NA,36,NA,NA,NA,warmup/dandelion.jpg,flowers,some_college,NA,NA,english,female,NA,flowers,NA,2,1571837551205,2,This is a,1,These are both,sunflower,NA,NA,warmup2,NA
604,NA,redwood,NA,NA,NA,20,warmup/bonsai.jpg,redwood or sequoia (choose one),This is a,No,2,trees,margaret,NA,bonsai,NA,yes,Please label the pictures below.,NA,NA,36,NA,NA,NA,warmup/sequoia.png,trees,some_college,NA,NA,english,female,NA,trees,NA,3,1571837551205,1,This is a,1,These are both,bonsai,NA,NA,warmup2,NA
604,What do you think your friend meant?,NA,It is big  relative to other,images/flower-parade-basic.png,images/sunflower.png,20,NA,NA,NA,No,2,flowers,margaret,NA,NA,0,yes,"Your friend runs far ahead of you, and you see him in the distance:",prenominal,NA,36,flowers,NA,1,NA,NA,some_college,big,NA,english,female,NA,NA,You and your friend see the following:,1,1571837551205,NA,NA,1,NA,NA,NA,basic,custom_main_text2,Your friend says: <br/><b>That's a big sunflower.</b>
604,What do you think your friend meant?,NA,It is small  relative to other,images/dog-parade-basic.png,images/chihuahua.png,20,NA,NA,NA,No,2,dogs1,margaret,NA,NA,0,yes,"Your friend runs far ahead of you, and you see him in the distance:",prenominal,NA,36,dogs,NA,1,NA,NA,some_college,small,NA,english,female,NA,NA,You and your friend see the following:,2,1571837551205,NA,NA,1,NA,NA,NA,basic,custom_main_text2,Your friend says: <br/><b>That's a small chihuahua.</b>
604,What do you think your friend meant?,NA,It is small  relative to other,images/tree-parade-bonsai.png,images/bonsai.png,20,NA,NA,NA,No,2,trees,margaret,NA,NA,1,yes,"Your friend runs far ahead of you, and you see him in the distance:",prenominal,NA,36,bonsais,NA,1,NA,NA,some_college,small,NA,english,female,NA,NA,You and your friend see the following:,3,1571837551205,NA,NA,1,NA,NA,NA,congr,custom_main_text2,Your friend says: <br/><b>That's a small bonsai.</b>
603,<i>What do you think Speaker A meant? </i>,NA,The Empire State Building is tall relative to other,NA,NA,20,NA,NA,NA,No problems that I noticed.,1,NA,patricia,1,NA,NA,yes,NA,NA,"<b> Speaker A: ""The Empire State Building is tall.""</b>",35,buildings,N/A,NA,NA,NA,graduated_college,NA,comp_class_warmup,English,female,NA,NA,In the main trials you will be asked to rephrase something a person said. The utterance will contain a word that is <i>relative</i> and your task is to figure out what it is relative to. <br /> <br /> For example: <br /><br />,1,1571837203383,1,NA,1.2,NA,NA,"buildings, skyscrapers, houses, constructions (choose one)",NA,comp_class_warmup,NA
603,NA,pug,NA,NA,NA,20,warmup/great-dane.jpg,pug,This is a,No problems that I noticed.,1,dogs,patricia,NA,great dane,NA,yes,Please label the pictures below.,NA,NA,35,NA,N/A,NA,warmup/pug.jpg,dogs,graduated_college,NA,NA,English,female,NA,dogs,NA,1,1571837203383,1,This is a,1.2,These are both,great dane,NA,NA,warmup1,NA
603,NA,tree,NA,NA,NA,20,warmup/bonsai.jpg,redwood or sequoia (choose one),This is a,No problems that I noticed.,1,trees,patricia,NA,bonsai,NA,yes,Please label the pictures below.,NA,NA,35,NA,N/A,NA,warmup/sequoia.png,plants,graduated_college,NA,NA,English,female,NA,trees,NA,2,1571837203383,1,This is a,1.2,These are both,shrub,NA,NA,warmup1,NA
603,NA,redwood,NA,NA,NA,20,warmup/bonsai.jpg,redwood or sequoia (choose one),This is a,No problems that I noticed.,1,trees,patricia,NA,bonsai,NA,yes,Please label the pictures below.,NA,NA,35,NA,N/A,NA,warmup/sequoia.png,trees,graduated_college,NA,NA,English,female,NA,trees,NA,2,1571837203383,2,This is a,1.2,These are both,bonsai,NA,NA,warmup1,NA
603,NA,hummingbird,NA,NA,NA,20,warmup/eagle.jpg,hummingbird,This is a,No problems that I noticed.,1,birds,patricia,NA,eagle,NA,yes,Please label the pictures below.,NA,NA,35,NA,N/A,NA,warmup/colibri.jpg,birds,graduated_college,NA,NA,English,female,NA,birds,NA,3,1571837203383,1,This is an,1.2,These are both,eagle,NA,NA,warmup1,NA
603,What do you think your friend meant?,NA,It is big  relative to other,images/dog-parade-basic2.png,images/great-dane.png,20,NA,NA,NA,No problems that I noticed.,1,dogs2,patricia,NA,NA,0,yes,"Your friend runs far ahead of you, and you see him in the distance:",prenominal,NA,35,dogs,N/A,1,NA,NA,graduated_college,big,NA,English,female,NA,NA,You and your friend see the following:,1,1571837203383,NA,NA,1.2,NA,NA,NA,basic,custom_main_text1,Your friend says: <br/><b>That's a big great dane.</b>
603,What do you think your friend meant?,NA,It is big  relative to other,images/tree-parade-redwood.png,images/redwood.png,20,NA,NA,NA,No problems that I noticed.,1,trees,patricia,NA,NA,1,yes,"Your friend runs far ahead of you, and you see him in the distance:",prenominal,NA,35,trees,N/A,1,NA,NA,graduated_college,big,NA,English,female,NA,NA,You and your friend see the following:,2,1571837203383,NA,NA,1.2,NA,NA,NA,congr,custom_main_text1,Your friend says: <br/><b>That's a big redwood.</b>
603,What do you think your friend meant?,NA,It is big  relative to other,images/bird-parade-eagle.png,images/eagle.png,20,NA,NA,NA,No problems that I noticed.,1,birds,patricia,NA,NA,1,yes,"Your friend runs far ahead of you, and you see him in the distance:",prenominal,NA,35,birds,N/A,1,NA,NA,graduated_college,big,NA,English,female,NA,NA,You and your friend see the following:,3,1571837203383,NA,NA,1.2,NA,NA,NA,congr,custom_main_text1,Your friend says: <br/><b>That's a big eagle.</b>
603,NA,shark,NA,NA,NA,20,warmup/goldfish.png,swordfish,This is a,No problems that I noticed.,1,fish,patricia,NA,goldfish,NA,yes,Please label the pictures below.,NA,NA,35,NA,N/A,NA,warmup/swordfish.jpg,fish,graduated_college,NA,NA,English,female,NA,fish,NA,1,1571837203383,1,This is a,1.2,These are both,clownfish,NA,NA,warmup2,NA
603,NA,swordfish,NA,NA,NA,20,warmup/goldfish.png,swordfish,This is a,No problems that I noticed.,1,fish,patricia,NA,goldfish,NA,yes,Please label the pictures below.,NA,NA,35,NA,N/A,NA,warmup/swordfish.jpg,fish,graduated_college,NA,NA,English,female,NA,fish,NA,1,1571837203383,2,This is a,1.2,These are both,clownfishgoldfish,NA,NA,warmup2,NA
603,NA,swordfish,NA,NA,NA,20,warmup/goldfish.png,swordfish,This is a,No problems that I noticed.,1,fish,patricia,NA,goldfish,NA,yes,Please label the pictures below.,NA,NA,35,NA,N/A,NA,warmup/swordfish.jpg,fish,graduated_college,NA,NA,English,female,NA,fish,NA,1,1571837203383,3,This is a,1.2,These are both,goldfish,NA,NA,warmup2,NA
603,NA,chichua,NA,NA,NA,20,warmup/doberman.png,chihuahua,This is a,No problems that I noticed.,1,dogs,patricia,NA,doberman,NA,yes,Please label the pictures below.,NA,NA,35,NA,N/A,NA,warmup/chihuahua.jpg,dogs,graduated_college,NA,NA,English,female,NA,dogs,NA,2,1571837203383,1,This is a,1.2,These are both,doberman,NA,NA,warmup2,NA
603,NA,chihuahua,NA,NA,NA,20,warmup/doberman.png,chihuahua,This is a,No problems that I noticed.,1,dogs,patricia,NA,doberman,NA,yes,Please label the pictures below.,NA,NA,35,NA,N/A,NA,warmup/chihuahua.jpg,dogs,graduated_college,NA,NA,English,female,NA,dogs,NA,2,1571837203383,2,This is a,1.2,These are both,doberman,NA,NA,warmup2,NA
603,NA,daffodil,NA,NA,NA,20,warmup/sunflower.png,dandelion,This is a,No problems that I noticed.,1,flowers,patricia,NA,sunflower,NA,yes,Please label the pictures below.,NA,NA,35,NA,N/A,NA,warmup/dandelion.jpg,flowers,graduated_college,NA,NA,English,female,NA,flowers,NA,3,1571837203383,1,This is a,1.2,These are both,sunflower,NA,NA,warmup2,NA
603,NA,dandelion,NA,NA,NA,20,warmup/sunflower.png,dandelion,This is a,No problems that I noticed.,1,flowers,patricia,NA,sunflower,NA,yes,Please label the pictures below.,NA,NA,35,NA,N/A,NA,warmup/dandelion.jpg,flowers,graduated_college,NA,NA,English,female,NA,flowers,NA,3,1571837203383,2,This is a,1.2,These are both,sunflower,NA,NA,warmup2,NA
603,What do you think your friend meant?,NA,It is small  relative to other,images/fish-parade-basic.png,images/goldfish.png,20,NA,NA,NA,No problems that I noticed.,1,fish,patricia,NA,NA,0,yes,"Your friend runs far ahead of you, and you see him in the distance:",prenominal,NA,35,fish,N/A,1,NA,NA,graduated_college,small,NA,English,female,NA,NA,You and your friend see the following:,1,1571837203383,NA,NA,1.2,NA,NA,NA,basic,custom_main_text2,Your friend says: <br/><b>That's a small goldfish.</b>
603,What do you think your friend meant?,NA,It is small  relative to other,images/flower-parade-basic.png,images/dandelion.png,20,NA,NA,NA,No problems that I noticed.,1,flowers,patricia,NA,NA,0,yes,"Your friend runs far ahead of you, and you see him in the distance:",prenominal,NA,35,flowers,N/A,1,NA,NA,graduated_college,small,NA,English,female,NA,NA,You and your friend see the following:,2,1571837203383,NA,NA,1.2,NA,NA,NA,basic,custom_main_text2,Your friend says: <br/><b>That's a small dandelion.</b>
603,What do you think your friend meant?,NA,It is small  relative to other,images/dog-parade-chihuahua.png,images/chihuahua.png,20,NA,NA,NA,No problems that I noticed.,1,dogs1,patricia,NA,NA,1,yes,"Your friend runs far ahead of you, and you see him in the distance:",prenominal,NA,35,dogs,N/A,1,NA,NA,graduated_college,small,NA,English,female,NA,NA,You and your friend see the following:,3,1571837203383,NA,NA,1.2,NA,NA,NA,congr,custom_main_text2,Your friend says: <br/><b>That's a small chihuahua.</b>
599,<i>What do you think Speaker A meant? </i>,NA,The Empire State Building is tall relative to other,NA,NA,20,NA,NA,NA,NA,1,NA,patricia,1,NA,NA,yes,NA,NA,"<b> Speaker A: ""The Empire State Building is tall.""</b>",36,buildings,NA,NA,NA,NA,graduated_college,NA,comp_class_warmup,English,male,NA,NA,In the main trials you will be asked to rephrase something a person said. The utterance will contain a word that is <i>relative</i> and your task is to figure out what it is relative to. <br /> <br /> For example: <br /><br />,1,1571837422516,1,NA,1,NA,NA,"buildings, skyscrapers, houses, constructions (choose one)",NA,comp_class_warmup,NA
599,NA,pug,NA,NA,NA,20,warmup/great-dane.jpg,pug,This is a,NA,1,dogs,patricia,NA,great dane,NA,yes,Please label the pictures below.,NA,NA,36,NA,NA,NA,warmup/pug.jpg,dog,graduated_college,NA,NA,English,male,NA,dogs,NA,1,1571837422516,1,This is a,1,These are both,something,NA,NA,warmup1,NA
599,NA,pug,NA,NA,NA,20,warmup/great-dane.jpg,pug,This is a,NA,1,dogs,patricia,NA,great dane,NA,yes,Please label the pictures below.,NA,NA,36,NA,NA,NA,warmup/pug.jpg,dog,graduated_college,NA,NA,English,male,NA,dogs,NA,1,1571837422516,2,This is a,1,These are both,great dane,NA,NA,warmup1,NA
599,NA,pug,NA,NA,NA,20,warmup/great-dane.jpg,pug,This is a,NA,1,dogs,patricia,NA,great dane,NA,yes,Please label the pictures below.,NA,NA,36,NA,NA,NA,warmup/pug.jpg,dog,graduated_college,NA,NA,English,male,NA,dogs,NA,1,1571837422516,3,This is a,1,These are both,great dane,NA,NA,warmup1,NA
599,NA,pug,NA,NA,NA,20,warmup/great-dane.jpg,pug,This is a,NA,1,dogs,patricia,NA,great dane,NA,yes,Please label the pictures below.,NA,NA,36,NA,NA,NA,warmup/pug.jpg,dogs,graduated_college,NA,NA,English,male,NA,dogs,NA,1,1571837422516,4,This is a,1,These are both,great dane,NA,NA,warmup1,NA
599,NA,daisy,NA,NA,NA,20,warmup/sunflower.png,dandelion,This is a,NA,1,flowers,patricia,NA,sunflower,NA,yes,Please label the pictures below.,NA,NA,36,NA,NA,NA,warmup/dandelion.jpg,flowers,graduated_college,NA,NA,English,male,NA,flowers,NA,2,1571837422516,1,This is a,1,These are both,sunflower,NA,NA,warmup1,NA
599,NA,dandelion,NA,NA,NA,20,warmup/sunflower.png,dandelion,This is a,NA,1,flowers,patricia,NA,sunflower,NA,yes,Please label the pictures below.,NA,NA,36,NA,NA,NA,warmup/dandelion.jpg,flowers,graduated_college,NA,NA,English,male,NA,flowers,NA,2,1571837422516,2,This is a,1,These are both,sunflower,NA,NA,warmup1,NA
599,NA,chicuauw,NA,NA,NA,20,warmup/doberman.png,chihuahua,This is a,NA,1,dogs,patricia,NA,doberman,NA,yes,Please label the pictures below.,NA,NA,36,NA,NA,NA,warmup/chihuahua.jpg,dogs,graduated_college,NA,NA,English,male,NA,dogs,NA,3,1571837422516,1,This is a,1,These are both,doverman,NA,NA,warmup1,NA
599,NA,chihuahua,NA,NA,NA,20,warmup/doberman.png,chihuahua,This is a,NA,1,dogs,patricia,NA,doberman,NA,yes,Please label the pictures below.,NA,NA,36,NA,NA,NA,warmup/chihuahua.jpg,dogs,graduated_college,NA,NA,English,male,NA,dogs,NA,3,1571837422516,2,This is a,1,These are both,doberman,NA,NA,warmup1,NA
599,What do you think your friend meant?,NA,It is small  relative to other,images/dog-parade-basic.png,images/chihuahua.png,20,NA,NA,NA,NA,1,dogs1,patricia,NA,NA,0,yes,"Your friend runs far ahead of you, and you see him in the distance:",prenominal,NA,36,dogs,NA,1,NA,NA,graduated_college,small,NA,English,male,NA,NA,You and your friend see the following:,1,1571837422516,NA,NA,1,NA,NA,NA,basic,custom_main_text1,Your friend says: <br/><b>That's a small chihuahua.</b>
599,What do you think your friend meant?,NA,It is big  relative to other,images/dog-parade-great-dane.png,images/great-dane.png,20,NA,NA,NA,NA,1,dogs2,patricia,NA,NA,1,yes,"Your friend runs far ahead of you, and you see him in the distance:",prenominal,NA,36,dogs,NA,1,NA,NA,graduated_college,big,NA,English,male,NA,NA,You and your friend see the following:,2,1571837422516,NA,NA,1,NA,NA,NA,congr,custom_main_text1,Your friend says: <br/><b>That's a big great dane.</b>
599,What do you think your friend meant?,NA,It is big  relative to other,images/flower-parade-basic.png,images/sunflower.png,20,NA,NA,NA,NA,1,flowers,patricia,NA,NA,0,yes,"Your friend runs far ahead of you, and you see him in the distance:",prenominal,NA,36,flowers,NA,1,NA,NA,graduated_college,big,NA,English,male,NA,NA,You and your friend see the following:,3,1571837422516,NA,NA,1,NA,NA,NA,basic,custom_main_text1,Your friend says: <br/><b>That's a big sunflower.</b>
599,NA,hummingbird,NA,NA,NA,20,warmup/eagle.jpg,hummingbird,This is a,NA,1,birds,patricia,NA,eagle,NA,yes,Please label the pictures below.,NA,NA,36,NA,NA,NA,warmup/colibri.jpg,birds,graduated_college,NA,NA,English,male,NA,birds,NA,1,1571837422516,1,This is an,1,These are both,bald eagle,NA,NA,warmup2,NA
599,NA,hummingbird,NA,NA,NA,20,warmup/eagle.jpg,hummingbird,This is a,NA,1,birds,patricia,NA,eagle,NA,yes,Please label the pictures below.,NA,NA,36,NA,NA,NA,warmup/colibri.jpg,birds,graduated_college,NA,NA,English,male,NA,birds,NA,1,1571837422516,2,This is an,1,These are both,eagle,NA,NA,warmup2,NA
599,NA,redwood,NA,NA,NA,20,warmup/bonsai.jpg,redwood or sequoia (choose one),This is a,NA,1,trees,patricia,NA,bonsai,NA,yes,Please label the pictures below.,NA,NA,36,NA,NA,NA,warmup/sequoia.png,trees,graduated_college,NA,NA,English,male,NA,trees,NA,2,1571837422516,1,This is a,1,These are both,bonzai,NA,NA,warmup2,NA
599,NA,redwood,NA,NA,NA,20,warmup/bonsai.jpg,redwood or sequoia (choose one),This is a,NA,1,trees,patricia,NA,bonsai,NA,yes,Please label the pictures below.,NA,NA,36,NA,NA,NA,warmup/sequoia.png,trees,graduated_college,NA,NA,English,male,NA,trees,NA,2,1571837422516,2,This is a,1,These are both,bonsai,NA,NA,warmup2,NA
599,NA,marlin,NA,NA,NA,20,warmup/goldfish.png,swordfish,This is a,NA,1,fish,patricia,NA,goldfish,NA,yes,Please label the pictures below.,NA,NA,36,NA,NA,NA,warmup/swordfish.jpg,fish,graduated_college,NA,NA,English,male,NA,fish,NA,3,1571837422516,1,This is a,1,These are both,goldfish,NA,NA,warmup2,NA
599,NA,swordfish,NA,NA,NA,20,warmup/goldfish.png,swordfish,This is a,NA,1,fish,patricia,NA,goldfish,NA,yes,Please label the pictures below.,NA,NA,36,NA,NA,NA,warmup/swordfish.jpg,fish,graduated_college,NA,NA,English,male,NA,fish,NA,3,1571837422516,2,This is a,1,These are both,goldfish,NA,NA,warmup2,NA
599,What do you think your friend meant?,NA,It is small  relative to other,images/fish-parade-basic.png,images/goldfish.png,20,NA,NA,NA,NA,1,fish,patricia,NA,NA,0,yes,"Your friend runs far ahead of you, and you see him in the distance:",prenominal,NA,36,fish,NA,1,NA,NA,graduated_college,small,NA,English,male,NA,NA,You and your friend see the following:,1,1571837422516,NA,NA,1,NA,NA,NA,basic,custom_main_text2,Your friend says: <br/><b>That's a small goldfish.</b>
599,What do you think your friend meant?,NA,It is big  relative to other,images/bird-parade-eagle.png,images/eagle.png,20,NA,NA,NA,NA,1,birds,patricia,NA,NA,1,yes,"Your friend runs far ahead of you, and you see him in the distance:",prenominal,NA,36,birds,NA,1,NA,NA,graduated_college,big,NA,English,male,NA,NA,You and your friend see the following:,2,1571837422516,NA,NA,1,NA,NA,NA,congr,custom_main_text2,Your friend says: <br/><b>That's a big eagle.</b>
599,What do you think your friend meant?,NA,It is small  relative to other,images/tree-parade-bonsai.png,images/bonsai.png,20,NA,NA,NA,NA,1,trees,patricia,NA,NA,1,yes,"Your friend runs far ahead of you, and you see him in the distance:",prenominal,NA,36,trees,NA,1,NA,NA,graduated_college,small,NA,English,male,NA,NA,You and your friend see the following:,3,1571837422516,NA,NA,1,NA,NA,NA,congr,custom_main_text2,Your friend says: <br/><b>That's a small bonsai.</b>
597,<i>What do you think Speaker A meant? </i>,NA,The Empire State Building is tall relative to other,NA,NA,20,NA,NA,NA,No,1,NA,Margaret,1,NA,NA,yes,NA,NA,"<b> Speaker A: ""The Empire State Building is tall.""</b>",37,buildings,NA,NA,NA,NA,some_college,NA,comp_class_warmup,English,female,NA,NA,In the main trials you will be asked to rephrase something a person said. The utterance will contain a word that is <i>relative</i> and your task is to figure out what it is relative to. <br /> <br /> For example: <br /><br />,1,1571837073371,1,NA,1,NA,NA,"buildings, skyscrapers, houses, constructions (choose one)",NA,comp_class_warmup,NA
597,NA,pug,NA,NA,NA,20,warmup/great-dane.jpg,pug,This is a,No,1,dogs,Margaret,NA,great dane,NA,yes,Please label the pictures below.,NA,NA,37,NA,NA,NA,warmup/pug.jpg,dogs,some_college,NA,NA,English,female,NA,dogs,NA,1,1571837073371,1,This is a,1,These are both,great dane,NA,NA,warmup1,NA
597,NA,swordfish,NA,NA,NA,20,warmup/goldfish.png,swordfish,This is a,No,1,fish,Margaret,NA,goldfish,NA,yes,Please label the pictures below.,NA,NA,37,NA,NA,NA,warmup/swordfish.jpg,fish,some_college,NA,NA,English,female,NA,fish,NA,2,1571837073371,1,This is a,1,These are both,goldfish,NA,NA,warmup1,NA
597,NA,dandelion,NA,NA,NA,20,warmup/sunflower.png,dandelion,This is a,No,1,flowers,Margaret,NA,sunflower,NA,yes,Please label the pictures below.,NA,NA,37,NA,NA,NA,warmup/dandelion.jpg,flowers,some_college,NA,NA,English,female,NA,flowers,NA,3,1571837073371,1,This is a,1,These are both,sunflower,NA,NA,warmup1,NA
597,What do you think your friend meant?,NA,It is big  relative to other,images/flower-parade-basic.png,images/sunflower.png,20,NA,NA,NA,No,1,flowers,Margaret,NA,NA,0,yes,"Your friend runs far ahead of you, and you see him in the distance:",prenominal,NA,37,sunflowers,NA,1,NA,NA,some_college,big,NA,English,female,NA,NA,You and your friend see the following:,1,1571837073371,NA,NA,1,NA,NA,NA,basic,custom_main_text1,Your friend says: <br/><b>That's a big sunflower.</b>
597,What do you think your friend meant?,NA,It is small  relative to other,images/dog-parade-pug.png,images/pug.png,20,NA,NA,NA,No,1,dogs2,Margaret,NA,NA,1,yes,"Your friend runs far ahead of you, and you see him in the distance:",prenominal,NA,37,pugs,NA,1,NA,NA,some_college,small,NA,English,female,NA,NA,You and your friend see the following:,2,1571837073371,NA,NA,1,NA,NA,NA,congr,custom_main_text1,Your friend says: <br/><b>That's a small pug.</b>
597,What do you think your friend meant?,NA,It is big  relative to other,images/fish-parade-swordfish.png,images/swordfish.png,20,NA,NA,NA,No,1,fish,Margaret,NA,NA,1,yes,"Your friend runs far ahead of you, and you see him in the distance:",prenominal,NA,37,swordfish,NA,1,NA,NA,some_college,big,NA,English,female,NA,NA,You and your friend see the following:,3,1571837073371,NA,NA,1,NA,NA,NA,congr,custom_main_text1,Your friend says: <br/><b>That's a big swordfish.</b>
597,NA,hummingbird,NA,NA,NA,20,warmup/eagle.jpg,hummingbird,This is a,No,1,birds,Margaret,NA,eagle,NA,yes,Please label the pictures below.,NA,NA,37,NA,NA,NA,warmup/colibri.jpg,birds,some_college,NA,NA,English,female,NA,birds,NA,1,1571837073371,1,This is an,1,These are both,eagle,NA,NA,warmup2,NA
597,NA,chiuhaha,NA,NA,NA,20,warmup/doberman.png,chihuahua,This is a,No,1,dogs,Margaret,NA,doberman,NA,yes,Please label the pictures below.,NA,NA,37,NA,NA,NA,warmup/chihuahua.jpg,dogs,some_college,NA,NA,English,female,NA,dogs,NA,2,1571837073371,1,This is a,1,These are both,doberman,NA,NA,warmup2,NA
597,NA,chihuahua,NA,NA,NA,20,warmup/doberman.png,chihuahua,This is a,No,1,dogs,Margaret,NA,doberman,NA,yes,Please label the pictures below.,NA,NA,37,NA,NA,NA,warmup/chihuahua.jpg,dogs,some_college,NA,NA,English,female,NA,dogs,NA,2,1571837073371,2,This is a,1,These are both,doberman,NA,NA,warmup2,NA
597,NA,redwood,NA,NA,NA,20,warmup/bonsai.jpg,redwood or sequoia (choose one),This is a,No,1,trees,Margaret,NA,bonsai,NA,yes,Please label the pictures below.,NA,NA,37,NA,NA,NA,warmup/sequoia.png,trees,some_college,NA,NA,English,female,NA,trees,NA,3,1571837073371,1,This is a,1,These are both,bonsai,NA,NA,warmup2,NA
597,What do you think your friend meant?,NA,It is small  relative to other,images/bird-parade-basic.png,images/hummingbird.png,20,NA,NA,NA,No,1,birds,Margaret,NA,NA,0,yes,"Your friend runs far ahead of you, and you see him in the distance:",prenominal,NA,37,hummingbirds,NA,1,NA,NA,some_college,small,NA,English,female,NA,NA,You and your friend see the following:,1,1571837073371,NA,NA,1,NA,NA,NA,basic,custom_main_text2,Your friend says: <br/><b>That's a small hummingbird.</b>
597,What do you think your friend meant?,NA,It is big  relative to other,images/tree-parade-basic.png,images/redwood.png,20,NA,NA,NA,No,1,trees,Margaret,NA,NA,0,yes,"Your friend runs far ahead of you, and you see him in the distance:",prenominal,NA,37,trees,NA,1,NA,NA,some_college,big,NA,English,female,NA,NA,You and your friend see the following:,2,1571837073371,NA,NA,1,NA,NA,NA,basic,custom_main_text2,Your friend says: <br/><b>That's a big redwood.</b>
597,What do you think your friend meant?,NA,It is small  relative to other,images/dog-parade-chihuahua.png,images/chihuahua.png,20,NA,NA,NA,No,1,dogs1,Margaret,NA,NA,1,yes,"Your friend runs far ahead of you, and you see him in the distance:",prenominal,NA,37,chihuahuas,NA,1,NA,NA,some_college,small,NA,English,female,NA,NA,You and your friend see the following:,3,1571837073371,NA,NA,1,NA,NA,NA,congr,custom_main_text2,Your friend says: <br/><b>That's a small chihuahua.</b>
596,<i>What do you think Speaker A meant? </i>,NA,The Empire State Building is tall relative to other,NA,NA,20,NA,NA,NA,No,1,NA,Margaret,1,NA,NA,yes,NA,NA,"<b> Speaker A: ""The Empire State Building is tall.""</b>",38,buildings,NA,NA,NA,NA,some_college,NA,comp_class_warmup,English,male,NA,NA,In the main trials you will be asked to rephrase something a person said. The utterance will contain a word that is <i>relative</i> and your task is to figure out what it is relative to. <br /> <br /> For example: <br /><br />,1,1571837176500,1,NA,1,NA,NA,"buildings, skyscrapers, houses, constructions (choose one)",NA,comp_class_warmup,NA
596,NA,dandelion,NA,NA,NA,20,warmup/sunflower.png,dandelion,This is a,No,1,flowers,Margaret,NA,sunflower,NA,yes,Please label the pictures below.,NA,NA,38,NA,NA,NA,warmup/dandelion.jpg,flowers,some_college,NA,NA,English,male,NA,flowers,NA,1,1571837176500,1,This is a,1,These are both,sunflower,NA,NA,warmup1,NA
596,NA,pug,NA,NA,NA,20,warmup/great-dane.jpg,pug,This is a,No,1,dogs,Margaret,NA,great dane,NA,yes,Please label the pictures below.,NA,NA,38,NA,NA,NA,warmup/pug.jpg,dogs,some_college,NA,NA,English,male,NA,dogs,NA,2,1571837176500,1,This is a,1,These are both,Great Dane,NA,NA,warmup1,NA
596,NA,swordfish,NA,NA,NA,20,warmup/goldfish.png,swordfish,This is a,No,1,fish,Margaret,NA,goldfish,NA,yes,Please label the pictures below.,NA,NA,38,NA,NA,NA,warmup/swordfish.jpg,fish,some_college,NA,NA,English,male,NA,fish,NA,3,1571837176500,1,This is a,1,These are both,goldfish,NA,NA,warmup1,NA
596,What do you think your friend meant?,NA,It is big  relative to other,images/fish-parade-basic.png,images/swordfish.png,20,NA,NA,NA,No,1,fish,Margaret,NA,NA,0,yes,"Your friend runs far ahead of you, and you see him in the distance:",prenominal,NA,38,fish,NA,1,NA,NA,some_college,big,NA,English,male,NA,NA,You and your friend see the following:,1,1571837176500,NA,NA,1,NA,NA,NA,basic,custom_main_text1,Your friend says: <br/><b>That's a big swordfish.</b>
596,What do you think your friend meant?,NA,It is small  relative to other,images/dog-parade-basic2.png,images/pug.png,20,NA,NA,NA,No,1,dogs2,Margaret,NA,NA,0,yes,"Your friend runs far ahead of you, and you see him in the distance:",prenominal,NA,38,great danes,NA,1,NA,NA,some_college,small,NA,English,male,NA,NA,You and your friend see the following:,2,1571837176500,NA,NA,1,NA,NA,NA,basic,custom_main_text1,Your friend says: <br/><b>That's a small pug.</b>
596,What do you think your friend meant?,NA,It is small  relative to other,images/flower-parade-dandelion.png,images/dandelion.png,20,NA,NA,NA,No,1,flowers,Margaret,NA,NA,1,yes,"Your friend runs far ahead of you, and you see him in the distance:",prenominal,NA,38,dandelions,NA,1,NA,NA,some_college,small,NA,English,male,NA,NA,You and your friend see the following:,3,1571837176500,NA,NA,1,NA,NA,NA,congr,custom_main_text1,Your friend says: <br/><b>That's a small dandelion.</b>
596,NA,hummingbird,NA,NA,NA,20,warmup/eagle.jpg,hummingbird,This is a,No,1,birds,Margaret,NA,eagle,NA,yes,Please label the pictures below.,NA,NA,38,NA,NA,NA,warmup/colibri.jpg,birds,some_college,NA,NA,English,male,NA,birds,NA,1,1571837176500,1,This is an,1,These are both,eagle,NA,NA,warmup2,NA
596,NA,chihuahua,NA,NA,NA,20,warmup/doberman.png,chihuahua,This is a,No,1,dogs,Margaret,NA,doberman,NA,yes,Please label the pictures below.,NA,NA,38,NA,NA,NA,warmup/chihuahua.jpg,dogs,some_college,NA,NA,English,male,NA,dogs,NA,2,1571837176500,1,This is a,1,These are both,doberman,NA,NA,warmup2,NA
596,NA,tree,NA,NA,NA,20,warmup/bonsai.jpg,redwood or sequoia (choose one),This is a,No,1,trees,Margaret,NA,bonsai,NA,yes,Please label the pictures below.,NA,NA,38,NA,NA,NA,warmup/sequoia.png,trees,some_college,NA,NA,English,male,NA,trees,NA,3,1571837176500,1,This is a,1,These are both,banzai tree,NA,NA,warmup2,NA
596,NA,redwood,NA,NA,NA,20,warmup/bonsai.jpg,redwood or sequoia (choose one),This is a,No,1,trees,Margaret,NA,bonsai,NA,yes,Please label the pictures below.,NA,NA,38,NA,NA,NA,warmup/sequoia.png,trees,some_college,NA,NA,English,male,NA,trees,NA,3,1571837176500,2,This is a,1,These are both,bonsai,NA,NA,warmup2,NA
596,What do you think your friend meant?,NA,It is small  relative to other,images/bird-parade-hummingbird.png,images/hummingbird.png,20,NA,NA,NA,No,1,birds,Margaret,NA,NA,1,yes,"Your friend runs far ahead of you, and you see him in the distance:",prenominal,NA,38,birds,NA,1,NA,NA,some_college,small,NA,English,male,NA,NA,You and your friend see the following:,1,1571837176500,NA,NA,1,NA,NA,NA,congr,custom_main_text2,Your friend says: <br/><b>That's a small hummingbird.</b>
596,What do you think your friend meant?,NA,It is big  relative to other,images/tree-parade-redwood.png,images/redwood.png,20,NA,NA,NA,No,1,trees,Margaret,NA,NA,1,yes,"Your friend runs far ahead of you, and you see him in the distance:",prenominal,NA,38,trees,NA,1,NA,NA,some_college,big,NA,English,male,NA,NA,You and your friend see the following:,2,1571837176500,NA,NA,1,NA,NA,NA,congr,custom_main_text2,Your friend says: <br/><b>That's a big redwood.</b>
596,What do you think your friend meant?,NA,It is big  relative to other,images/dog-parade-basic.png,images/doberman.png,20,NA,NA,NA,No,1,dogs1,Margaret,NA,NA,0,yes,"Your friend runs far ahead of you, and you see him in the distance:",prenominal,NA,38,dogs,NA,1,NA,NA,some_college,big,NA,English,male,NA,NA,You and your friend see the following:,3,1571837176500,NA,NA,1,NA,NA,NA,basic,custom_main_text2,Your friend says: <br/><b>That's a big doberman.</b>
595,<i>What do you think Speaker A meant? </i>,NA,The Empire State Building is tall relative to other,NA,NA,20,NA,NA,NA,no,1,NA,Jennifer,1,NA,NA,yes,NA,NA,"<b> Speaker A: ""The Empire State Building is tall.""</b>",29,buildings,NA,NA,NA,NA,graduated_high_school,NA,comp_class_warmup,english,male,NA,NA,In the main trials you will be asked to rephrase something a person said. The utterance will contain a word that is <i>relative</i> and your task is to figure out what it is relative to. <br /> <br /> For example: <br /><br />,1,1571837139704,1,NA,1,NA,NA,"buildings, skyscrapers, houses, constructions (choose one)",NA,comp_class_warmup,NA
595,NA,hummingbird,NA,NA,NA,20,warmup/eagle.jpg,hummingbird,This is a,no,1,birds,Jennifer,NA,eagle,NA,yes,Please label the pictures below.,NA,NA,29,NA,NA,NA,warmup/colibri.jpg,birds,graduated_high_school,NA,NA,english,male,NA,birds,NA,1,1571837139704,1,This is an,1,These are both,eagle,NA,NA,warmup1,NA
595,NA,swordfish,NA,NA,NA,20,warmup/goldfish.png,swordfish,This is a,no,1,fish,Jennifer,NA,goldfish,NA,yes,Please label the pictures below.,NA,NA,29,NA,NA,NA,warmup/swordfish.jpg,fish,graduated_high_school,NA,NA,english,male,NA,fish,NA,2,1571837139704,1,This is a,1,These are both,goldfish,NA,NA,warmup1,NA
595,NA,redwood,NA,NA,NA,20,warmup/bonsai.jpg,redwood or sequoia (choose one),This is a,no,1,trees,Jennifer,NA,bonsai,NA,yes,Please label the pictures below.,NA,NA,29,NA,NA,NA,warmup/sequoia.png,trees,graduated_high_school,NA,NA,english,male,NA,trees,NA,3,1571837139704,1,This is a,1,These are both,bonsai,NA,NA,warmup1,NA
595,What do you think your friend meant?,NA,It is small  relative to other,images/bird-parade-basic.png,images/hummingbird.png,20,NA,NA,NA,no,1,birds,Jennifer,NA,NA,0,yes,"Your friend runs far ahead of you, and you see him in the distance:",prenominal,NA,29,hummigbirds,NA,1,NA,NA,graduated_high_school,small,NA,english,male,NA,NA,You and your friend see the following:,1,1571837139704,NA,NA,1,NA,NA,NA,basic,custom_main_text1,Your friend says: <br/><b>That's a small hummingbird.</b>
595,What do you think your friend meant?,NA,It is big  relative to other,images/fish-parade-swordfish.png,images/swordfish.png,20,NA,NA,NA,no,1,fish,Jennifer,NA,NA,1,yes,"Your friend runs far ahead of you, and you see him in the distance:",prenominal,NA,29,fish,NA,1,NA,NA,graduated_high_school,big,NA,english,male,NA,NA,You and your friend see the following:,2,1571837139704,NA,NA,1,NA,NA,NA,congr,custom_main_text1,Your friend says: <br/><b>That's a big swordfish.</b>
595,What do you think your friend meant?,NA,It is big  relative to other,images/tree-parade-redwood.png,images/redwood.png,20,NA,NA,NA,no,1,trees,Jennifer,NA,NA,1,yes,"Your friend runs far ahead of you, and you see him in the distance:",prenominal,NA,29,trees,NA,1,NA,NA,graduated_high_school,big,NA,english,male,NA,NA,You and your friend see the following:,3,1571837139704,NA,NA,1,NA,NA,NA,congr,custom_main_text1,Your friend says: <br/><b>That's a big redwood.</b>
595,NA,pug,NA,NA,NA,20,warmup/great-dane.jpg,pug,This is a,no,1,dogs,Jennifer,NA,great dane,NA,yes,Please label the pictures below.,NA,NA,29,NA,NA,NA,warmup/pug.jpg,dogs,graduated_high_school,NA,NA,english,male,NA,dogs,NA,1,1571837139704,1,This is a,1,These are both,great dane,NA,NA,warmup2,NA
595,NA,weed,NA,NA,NA,20,warmup/sunflower.png,dandelion,This is a,no,1,flowers,Jennifer,NA,sunflower,NA,yes,Please label the pictures below.,NA,NA,29,NA,NA,NA,warmup/dandelion.jpg,flowers,graduated_high_school,NA,NA,english,male,NA,flowers,NA,2,1571837139704,1,This is a,1,These are both,sunflower,NA,NA,warmup2,NA
595,NA,dandelion,NA,NA,NA,20,warmup/sunflower.png,dandelion,This is a,no,1,flowers,Jennifer,NA,sunflower,NA,yes,Please label the pictures below.,NA,NA,29,NA,NA,NA,warmup/dandelion.jpg,flowers,graduated_high_school,NA,NA,english,male,NA,flowers,NA,2,1571837139704,2,This is a,1,These are both,sunflower,NA,NA,warmup2,NA
595,NA,chicucuuaua,NA,NA,NA,20,warmup/doberman.png,chihuahua,This is a,no,1,dogs,Jennifer,NA,doberman,NA,yes,Please label the pictures below.,NA,NA,29,NA,NA,NA,warmup/chihuahua.jpg,dogs,graduated_high_school,NA,NA,english,male,NA,dogs,NA,3,1571837139704,1,This is a,1,These are both,sad;f,NA,NA,warmup2,NA
595,NA,chihuahua,NA,NA,NA,20,warmup/doberman.png,chihuahua,This is a,no,1,dogs,Jennifer,NA,doberman,NA,yes,Please label the pictures below.,NA,NA,29,NA,NA,NA,warmup/chihuahua.jpg,dogs,graduated_high_school,NA,NA,english,male,NA,dogs,NA,3,1571837139704,2,This is a,1,These are both,doberman,NA,NA,warmup2,NA
595,What do you think your friend meant?,NA,It is small  relative to other,images/dog-parade-basic.png,images/chihuahua.png,20,NA,NA,NA,no,1,dogs1,Jennifer,NA,NA,0,yes,"Your friend runs far ahead of you, and you see him in the distance:",prenominal,NA,29,dogs,NA,1,NA,NA,graduated_high_school,small,NA,english,male,NA,NA,You and your friend see the following:,1,1571837139704,NA,NA,1,NA,NA,NA,basic,custom_main_text2,Your friend says: <br/><b>That's a small chihuahua.</b>
595,What do you think your friend meant?,NA,It is small  relative to other,images/flower-parade-dandelion.png,images/dandelion.png,20,NA,NA,NA,no,1,flowers,Jennifer,NA,NA,1,yes,"Your friend runs far ahead of you, and you see him in the distance:",prenominal,NA,29,flowers,NA,1,NA,NA,graduated_high_school,small,NA,english,male,NA,NA,You and your friend see the following:,2,1571837139704,NA,NA,1,NA,NA,NA,congr,custom_main_text2,Your friend says: <br/><b>That's a small dandelion.</b>
595,What do you think your friend meant?,NA,It is big  relative to other,images/dog-parade-basic2.png,images/great-dane.png,20,NA,NA,NA,no,1,dogs2,Jennifer,NA,NA,0,yes,"Your friend runs far ahead of you, and you see him in the distance:",prenominal,NA,29,dogs,NA,1,NA,NA,graduated_high_school,big,NA,english,male,NA,NA,You and your friend see the following:,3,1571837139704,NA,NA,1,NA,NA,NA,basic,custom_main_text2,Your friend says: <br/><b>That's a big great dane.</b>
591,<i>What do you think Speaker A meant? </i>,NA,The Empire State Building is tall relative to other,NA,NA,20,NA,NA,NA,no,1,NA,susan,1,NA,NA,yes,NA,NA,"<b> Speaker A: ""The Empire State Building is tall.""</b>",67,buildings,NA,NA,NA,NA,some_college,NA,comp_class_warmup,english,male,NA,NA,In the main trials you will be asked to rephrase something a person said. The utterance will contain a word that is <i>relative</i> and your task is to figure out what it is relative to. <br /> <br /> For example: <br /><br />,1,1571836919727,1,NA,1,NA,NA,"buildings, skyscrapers, houses, constructions (choose one)",NA,comp_class_warmup,NA
591,NA,daisy,NA,NA,NA,20,warmup/sunflower.png,dandelion,This is a,no,1,flowers,susan,NA,sunflower,NA,yes,Please label the pictures below.,NA,NA,67,NA,NA,NA,warmup/dandelion.jpg,flowers,some_college,NA,NA,english,male,NA,flowers,NA,1,1571836919727,1,This is a,1,These are both,sunflower,NA,NA,warmup1,NA
591,NA,dandelion,NA,NA,NA,20,warmup/sunflower.png,dandelion,This is a,no,1,flowers,susan,NA,sunflower,NA,yes,Please label the pictures below.,NA,NA,67,NA,NA,NA,warmup/dandelion.jpg,flowers,some_college,NA,NA,english,male,NA,flowers,NA,1,1571836919727,2,This is a,1,These are both,sunflower,NA,NA,warmup1,NA
591,NA,redwood,NA,NA,NA,20,warmup/bonsai.jpg,redwood or sequoia (choose one),This is a,no,1,trees,susan,NA,bonsai,NA,yes,Please label the pictures below.,NA,NA,67,NA,NA,NA,warmup/sequoia.png,trees,some_college,NA,NA,english,male,NA,trees,NA,2,1571836919727,1,This is a,1,These are both,bonsai,NA,NA,warmup1,NA
591,NA,hummingbird,NA,NA,NA,20,warmup/eagle.jpg,hummingbird,This is a,no,1,birds,susan,NA,eagle,NA,yes,Please label the pictures below.,NA,NA,67,NA,NA,NA,warmup/colibri.jpg,bird,some_college,NA,NA,english,male,NA,birds,NA,3,1571836919727,1,This is an,1,These are both,eagle,NA,NA,warmup1,NA
591,NA,hummingbird,NA,NA,NA,20,warmup/eagle.jpg,hummingbird,This is a,no,1,birds,susan,NA,eagle,NA,yes,Please label the pictures below.,NA,NA,67,NA,NA,NA,warmup/colibri.jpg,birds,some_college,NA,NA,english,male,NA,birds,NA,3,1571836919727,2,This is an,1,These are both,eagle,NA,NA,warmup1,NA
