submission_id,question,response1,target_picture,context_picture,experiment_id,picture2,correct1,question1,problems,enjoyment,item,botresponse,trials,correct2,understand,text,sentence,syntax,target,age,response,comments,picture1,education,target_size,name,languages,sex,RT,context,trial_number,startTime,attempts,paraphrase,question3,fairprice,response2,correct,adj_cond,trial_name,adj,utterance
2190,<i>What do you think Speaker A meant? </i>,NA,NA,NA,33,NA,NA,NA,No.,1,NA,susan,1,NA,NA,NA,"<b> Speaker A: ""The Empire State Building is tall.""</b>",NA,NA,NA,buildings,NA,NA,graduated_college,NA,comp_class_warmup,English,male,NA,In the main trials you will be asked to rephrase something a person said. The utterance will contain a word that is <i>relative</i> and your task is to figure out what it is relative to. <br /> <br /> For example: <br />,1,1587393642843,1,The Empire State Building is tall relative to other,NA,1,NA,"buildings, skyscrapers, houses, constructions (choose one)",NA,comp_class_warmup,NA,NA
2190,NA,weed,NA,NA,33,warmup/sunflower2.png,dandelion,This is a,No.,1,flowers,susan,NA,sunflower,NA,Your turn! Please label the pictures below.,NA,NA,NA,NA,NA,NA,warmup/dandelion2.png,graduated_college,NA,NA,English,male,NA,NA,1,1587393642843,1,NA,This is a,1,sunflower,NA,NA,warmup1,NA,NA
2190,NA,dandelion,NA,NA,33,warmup/sunflower2.png,dandelion,This is a,No.,1,flowers,susan,NA,sunflower,NA,Your turn! Please label the pictures below.,NA,NA,NA,NA,NA,NA,warmup/dandelion2.png,graduated_college,NA,NA,English,male,NA,NA,1,1587393642843,2,NA,This is a,1,sunflower,NA,NA,warmup1,NA,NA
2190,NA,hummingbird,NA,NA,33,warmup/eagle2.png,hummingbird,This is a,No.,1,birds1,susan,NA,eagle,NA,Your turn! Please label the pictures below.,NA,NA,NA,NA,NA,NA,warmup/hummingbird2.png,graduated_college,NA,NA,English,male,NA,NA,2,1587393642843,1,NA,This is an,1,eagle,NA,NA,warmup1,NA,NA
2190,NA,swordfish,NA,NA,33,warmup/goldfish2.png,swordfish,This is a,No.,1,fish,susan,NA,goldfish,NA,Your turn! Please label the pictures below.,NA,NA,NA,NA,NA,NA,warmup/swordfish2.png,graduated_college,NA,NA,English,male,NA,NA,3,1587393642843,1,NA,This is a,1,goldfish,NA,NA,warmup1,NA,NA
2190,NA,goose,NA,NA,33,warmup/sparrow2.png,goose,This is a,No.,1,birds2,susan,NA,sparrow,NA,Your turn! Please label the pictures below.,NA,NA,NA,NA,NA,NA,warmup/goose2.png,graduated_college,NA,NA,English,male,NA,NA,4,1587393642843,1,NA,This is a,1,sparrow,NA,NA,warmup1,NA,NA
2190,What do you think your friend is saying is it big relative to?,NA,images/sparrow.png,images/bird-parade-basic2.png,33,NA,NA,NA,No.,1,birds2,susan,NA,NA,NA,Your friend goes ahead of you. You see your friend in the distance:,NA,pred,sparrow,NA,sparrow,NA,NA,graduated_college,small,NA,English,male,17283,You and your friend see the following:,1,1587393642843,NA,It is big relative to other,NA,1,NA,NA,incongruent,custom_main_text1,big,Your friend says: <br/><b>That's a big sparrow.</b>
2190,What do you think your friend is saying is it big relative to?,NA,images/eagle.png,images/bird-parade-basic.png,33,NA,NA,NA,No.,1,birds1,susan,NA,NA,NA,Your friend goes ahead of you. You see your friend in the distance:,NA,subj,eagle,NA,hummingbird,NA,NA,graduated_college,big,NA,English,male,13939,You and your friend see the following:,2,1587393642843,NA,It is big relative to other,NA,1,NA,NA,congruent,custom_main_text1,big,Your friend says: <br/><b>That eagle is big.</b>
2190,What do you think your friend is saying is it big relative to?,NA,images/sunflower.png,images/flower-parade-basic.png,33,NA,NA,NA,No.,1,flowers,susan,NA,NA,NA,Your friend goes ahead of you. You see your friend in the distance:,NA,pred,sunflower,NA,dandelion,NA,NA,graduated_college,big,NA,English,male,12456,You and your friend see the following:,3,1587393642843,NA,It is big relative to other,NA,1,NA,NA,congruent,custom_main_text1,big,Your friend says: <br/><b>That's a big sunflower.</b>
2190,What do you think your friend is saying is it big relative to?,NA,images/goldfish.png,images/fish-parade-basic.png,33,NA,NA,NA,No.,1,fish,susan,NA,NA,NA,Your friend goes ahead of you. You see your friend in the distance:,NA,subj,goldfish,NA,goldfish,NA,NA,graduated_college,small,NA,English,male,6698,You and your friend see the following:,4,1587393642843,NA,It is big relative to other,NA,1,NA,NA,incongruent,custom_main_text1,big,Your friend says: <br/><b>That goldfish is big.</b>
2190,NA,canary,NA,NA,33,warmup/ostrich2.png,canary,This is a,No.,1,birds3,susan,NA,ostrich,NA,Your turn! Please label the pictures below.,NA,NA,NA,NA,NA,NA,warmup/canary2.png,graduated_college,NA,NA,English,male,NA,NA,1,1587393642843,1,NA,This is an,1,ostrich,NA,NA,warmup2,NA,NA
2190,NA,redwood,NA,NA,33,warmup/bonsai2.png,redwood or sequoia (choose one),This is a,No.,1,trees,susan,NA,bonsai,NA,Your turn! Please label the pictures below.,NA,NA,NA,NA,NA,NA,warmup/redwood2.png,graduated_college,NA,NA,English,male,NA,NA,2,1587393642843,1,NA,This is a,1,bonsai,NA,NA,warmup2,NA,NA
2190,NA,pug,NA,NA,33,warmup/great-dane2.png,pug,This is a,No.,1,dogs2,susan,NA,great dane,NA,Your turn! Please label the pictures below.,NA,NA,NA,NA,NA,NA,warmup/pug2.png,graduated_college,NA,NA,English,male,NA,NA,3,1587393642843,1,NA,This is a,1,great dane,NA,NA,warmup2,NA,NA
2190,NA,chihuahua,NA,NA,33,warmup/doberman2.png,chihuahua,This is a,No.,1,dogs1,susan,NA,doberman,NA,Your turn! Please label the pictures below.,NA,NA,NA,NA,NA,NA,warmup/chihuahua2.png,graduated_college,NA,NA,English,male,NA,NA,4,1587393642843,1,NA,This is a,1,doberman,NA,NA,warmup2,NA,NA
2190,What do you think your friend is saying is it big relative to?,NA,images/chihuahua.png,images/dog-parade-basic.png,33,NA,NA,NA,No.,1,dogs1,susan,NA,NA,NA,Your friend goes ahead of you. You see your friend in the distance:,NA,pred,chihuahua,NA,chihuahua,NA,NA,graduated_college,small,NA,English,male,22587,You and your friend see the following:,1,1587393642843,NA,It is big relative to other,NA,1,NA,NA,incongruent,custom_main_text2,big,Your friend says: <br/><b>That's a big chihuahua.</b>
2190,What do you think your friend is saying is it big relative to?,NA,images/redwood.png,images/tree-parade-basic.png,33,NA,NA,NA,No.,1,trees,susan,NA,NA,NA,Your friend goes ahead of you. You see your friend in the distance:,NA,subj,redwood,NA,bonsai,NA,NA,graduated_college,big,NA,English,male,5950,You and your friend see the following:,2,1587393642843,NA,It is big relative to other,NA,1,NA,NA,congruent,custom_main_text2,big,Your friend says: <br/><b>That redwood is big.</b>
2190,What do you think your friend is saying is it small relative to?,NA,images/great-dane.png,images/dog-parade-basic2.png,33,NA,NA,NA,No.,1,dogs2,susan,NA,NA,NA,Your friend goes ahead of you. You see your friend in the distance:,NA,subj,Great Dane,NA,doberman,NA,NA,graduated_college,big,NA,English,male,7016,You and your friend see the following:,3,1587393642843,NA,It is small relative to other,NA,1,NA,NA,incongruent,custom_main_text2,small,Your friend says: <br/><b>That Great Dane is small.</b>
2190,What do you think your friend is saying is it small relative to?,NA,images/canary.png,images/bird-parade-basic3.png,33,NA,NA,NA,No.,1,birds3,susan,NA,NA,NA,Your friend goes ahead of you. You see your friend in the distance:,NA,pred,canary,NA,canary,NA,NA,graduated_college,small,NA,English,male,5828,You and your friend see the following:,4,1587393642843,NA,It is small relative to other,NA,1,NA,NA,congruent,custom_main_text2,small,Your friend says: <br/><b>That's a small canary.</b>
2189,<i>What do you think Speaker A meant? </i>,NA,NA,NA,33,NA,NA,NA,no,1,NA,barbara,1,NA,yes,NA,"<b> Speaker A: ""The Empire State Building is tall.""</b>",NA,NA,50,buildings,NA,NA,graduated_college,NA,comp_class_warmup,English,female,NA,In the main trials you will be asked to rephrase something a person said. The utterance will contain a word that is <i>relative</i> and your task is to figure out what it is relative to. <br /> <br /> For example: <br />,1,1587393441751,1,The Empire State Building is tall relative to other,NA,1,NA,"buildings, skyscrapers, houses, constructions (choose one)",NA,comp_class_warmup,NA,NA
2189,NA,dandelion,NA,NA,33,warmup/sunflower2.png,dandelion,This is a,no,1,flowers,barbara,NA,sunflower,yes,Your turn! Please label the pictures below.,NA,NA,NA,50,NA,NA,warmup/dandelion2.png,graduated_college,NA,NA,English,female,NA,NA,1,1587393441751,1,NA,This is a,1,sunflower,NA,NA,warmup1,NA,NA
2189,NA,pug,NA,NA,33,warmup/great-dane2.png,pug,This is a,no,1,dogs2,barbara,NA,great dane,yes,Your turn! Please label the pictures below.,NA,NA,NA,50,NA,NA,warmup/pug2.png,graduated_college,NA,NA,English,female,NA,NA,2,1587393441751,1,NA,This is a,1,great dane,NA,NA,warmup1,NA,NA
2189,NA,chihuahua,NA,NA,33,warmup/doberman2.png,chihuahua,This is a,no,1,dogs1,barbara,NA,doberman,yes,Your turn! Please label the pictures below.,NA,NA,NA,50,NA,NA,warmup/chihuahua2.png,graduated_college,NA,NA,English,female,NA,NA,3,1587393441751,1,NA,This is a,1,doberman,NA,NA,warmup1,NA,NA
2189,NA,swordfish,NA,NA,33,warmup/goldfish2.png,swordfish,This is a,no,1,fish,barbara,NA,goldfish,yes,Your turn! Please label the pictures below.,NA,NA,NA,50,NA,NA,warmup/swordfish2.png,graduated_college,NA,NA,English,female,NA,NA,4,1587393441751,1,NA,This is a,1,goldfish,NA,NA,warmup1,NA,NA
2189,What do you think your friend is saying is it big relative to?,NA,images/pug.png,images/dog-parade-basic2.png,33,NA,NA,NA,no,1,dogs2,barbara,NA,NA,yes,Your friend goes ahead of you. You see your friend in the distance:,NA,pred,pug,50,pugs,NA,NA,graduated_college,small,NA,English,female,14601,You and your friend see the following:,1,1587393441751,NA,It is big relative to other,NA,1,NA,NA,incongruent,custom_main_text1,big,Your friend says: <br/><b>That's a big pug.</b>
2189,What do you think your friend is saying is it big relative to?,NA,images/sunflower.png,images/flower-parade-basic.png,33,NA,NA,NA,no,1,flowers,barbara,NA,NA,yes,Your friend goes ahead of you. You see your friend in the distance:,NA,subj,sunflower,50,flowers,NA,NA,graduated_college,big,NA,English,female,18351,You and your friend see the following:,2,1587393441751,NA,It is big relative to other,NA,1,NA,NA,congruent,custom_main_text1,big,Your friend says: <br/><b>That sunflower is big.</b>
2189,What do you think your friend is saying is it big relative to?,NA,images/chihuahua.png,images/dog-parade-basic.png,33,NA,NA,NA,no,1,dogs1,barbara,NA,NA,yes,Your friend goes ahead of you. You see your friend in the distance:,NA,pred,chihuahua,50,chihuahuas,NA,NA,graduated_college,small,NA,English,female,13848,You and your friend see the following:,3,1587393441751,NA,It is big relative to other,NA,1,NA,NA,incongruent,custom_main_text1,big,Your friend says: <br/><b>That's a big chihuahua.</b>
2189,What do you think your friend is saying is it small relative to?,NA,images/goldfish.png,images/fish-parade-basic.png,33,NA,NA,NA,no,1,fish,barbara,NA,NA,yes,Your friend goes ahead of you. You see your friend in the distance:,NA,pred,goldfish,50,fish,NA,NA,graduated_college,small,NA,English,female,13024,You and your friend see the following:,4,1587393441751,NA,It is small relative to other,NA,1,NA,NA,congruent,custom_main_text1,small,Your friend says: <br/><b>That's a small goldfish.</b>
2189,NA,goose,NA,NA,33,warmup/sparrow2.png,goose,This is a,no,1,birds2,barbara,NA,sparrow,yes,Your turn! Please label the pictures below.,NA,NA,NA,50,NA,NA,warmup/goose2.png,graduated_college,NA,NA,English,female,NA,NA,1,1587393441751,1,NA,This is a,1,sparrow,NA,NA,warmup2,NA,NA
2189,NA,redwood,NA,NA,33,warmup/bonsai2.png,redwood or sequoia (choose one),This is a,no,1,trees,barbara,NA,bonsai,yes,Your turn! Please label the pictures below.,NA,NA,NA,50,NA,NA,warmup/redwood2.png,graduated_college,NA,NA,English,female,NA,NA,2,1587393441751,1,NA,This is a,1,bonsai,NA,NA,warmup2,NA,NA
2189,NA,hummingbird,NA,NA,33,warmup/eagle2.png,hummingbird,This is a,no,1,birds1,barbara,NA,eagle,yes,Your turn! Please label the pictures below.,NA,NA,NA,50,NA,NA,warmup/hummingbird2.png,graduated_college,NA,NA,English,female,NA,NA,3,1587393441751,1,NA,This is an,1,eagle,NA,NA,warmup2,NA,NA
2189,NA,canary,NA,NA,33,warmup/ostrich2.png,canary,This is a,no,1,birds3,barbara,NA,ostrich,yes,Your turn! Please label the pictures below.,NA,NA,NA,50,NA,NA,warmup/canary2.png,graduated_college,NA,NA,English,female,NA,NA,4,1587393441751,1,NA,This is an,1,ostrich,NA,NA,warmup2,NA,NA
2189,What do you think your friend is saying is it big relative to?,NA,images/ostrich.png,images/bird-parade-basic3.png,33,NA,NA,NA,no,1,birds3,barbara,NA,NA,yes,Your friend goes ahead of you. You see your friend in the distance:,NA,pred,ostrich,50,birds,NA,NA,graduated_college,big,NA,English,female,9840,You and your friend see the following:,1,1587393441751,NA,It is big relative to other,NA,1,NA,NA,congruent,custom_main_text2,big,Your friend says: <br/><b>That's a big ostrich.</b>
2189,What do you think your friend is saying is it small relative to?,NA,images/eagle.png,images/bird-parade-basic.png,33,NA,NA,NA,no,1,birds1,barbara,NA,NA,yes,Your friend goes ahead of you. You see your friend in the distance:,NA,subj,eagle,50,eagles,NA,NA,graduated_college,big,NA,English,female,7552,You and your friend see the following:,2,1587393441751,NA,It is small relative to other,NA,1,NA,NA,incongruent,custom_main_text2,small,Your friend says: <br/><b>That eagle is small.</b>
2189,What do you think your friend is saying is it big relative to?,NA,images/sparrow.png,images/bird-parade-basic2.png,33,NA,NA,NA,no,1,birds2,barbara,NA,NA,yes,Your friend goes ahead of you. You see your friend in the distance:,NA,subj,sparrow,50,sparrows,NA,NA,graduated_college,small,NA,English,female,9862,You and your friend see the following:,3,1587393441751,NA,It is big relative to other,NA,1,NA,NA,incongruent,custom_main_text2,big,Your friend says: <br/><b>That sparrow is big.</b>
2189,What do you think your friend is saying is it big relative to?,NA,images/redwood.png,images/tree-parade-basic.png,33,NA,NA,NA,no,1,trees,barbara,NA,NA,yes,Your friend goes ahead of you. You see your friend in the distance:,NA,subj,redwood,50,trees,NA,NA,graduated_college,big,NA,English,female,6649,You and your friend see the following:,4,1587393441751,NA,It is big relative to other,NA,1,NA,NA,congruent,custom_main_text2,big,Your friend says: <br/><b>That redwood is big.</b>
2188,<i>What do you think Speaker A meant? </i>,NA,NA,NA,33,NA,NA,NA,No,2,NA,Jennifer,1,NA,yes,NA,"<b> Speaker A: ""The Empire State Building is tall.""</b>",NA,NA,41,buildings,NA,NA,graduated_college,NA,comp_class_warmup,English,male,NA,In the main trials you will be asked to rephrase something a person said. The utterance will contain a word that is <i>relative</i> and your task is to figure out what it is relative to. <br /> <br /> For example: <br />,1,1587393243057,1,The Empire State Building is tall relative to other,NA,0.5,NA,"buildings, skyscrapers, houses, constructions (choose one)",NA,comp_class_warmup,NA,NA
2188,NA,goose,NA,NA,33,warmup/sparrow2.png,goose,This is a,No,2,birds2,Jennifer,NA,sparrow,yes,Your turn! Please label the pictures below.,NA,NA,NA,41,NA,NA,warmup/goose2.png,graduated_college,NA,NA,English,male,NA,NA,1,1587393243057,1,NA,This is a,0.5,sparrow,NA,NA,warmup1,NA,NA
2188,NA,chichihua,NA,NA,33,warmup/doberman2.png,chihuahua,This is a,No,2,dogs1,Jennifer,NA,doberman,yes,Your turn! Please label the pictures below.,NA,NA,NA,41,NA,NA,warmup/chihuahua2.png,graduated_college,NA,NA,English,male,NA,NA,2,1587393243057,1,NA,This is a,0.5,doberman,NA,NA,warmup1,NA,NA
2188,NA,chihuahua,NA,NA,33,warmup/doberman2.png,chihuahua,This is a,No,2,dogs1,Jennifer,NA,doberman,yes,Your turn! Please label the pictures below.,NA,NA,NA,41,NA,NA,warmup/chihuahua2.png,graduated_college,NA,NA,English,male,NA,NA,2,1587393243057,2,NA,This is a,0.5,doberman,NA,NA,warmup1,NA,NA
2188,NA,hummingbird,NA,NA,33,warmup/eagle2.png,hummingbird,This is a,No,2,birds1,Jennifer,NA,eagle,yes,Your turn! Please label the pictures below.,NA,NA,NA,41,NA,NA,warmup/hummingbird2.png,graduated_college,NA,NA,English,male,NA,NA,3,1587393243057,1,NA,This is an,0.5,eagle,NA,NA,warmup1,NA,NA
2188,NA,dandelion,NA,NA,33,warmup/sunflower2.png,dandelion,This is a,No,2,flowers,Jennifer,NA,sunflower,yes,Your turn! Please label the pictures below.,NA,NA,NA,41,NA,NA,warmup/dandelion2.png,graduated_college,NA,NA,English,male,NA,NA,4,1587393243057,1,NA,This is a,0.5,sunflower,NA,NA,warmup1,NA,NA
2188,What do you think your friend is saying is it big relative to?,NA,images/goose.png,images/bird-parade-basic2.png,33,NA,NA,NA,No,2,birds2,Jennifer,NA,NA,yes,Your friend goes ahead of you. You see your friend in the distance:,NA,pred,goose,41,birds,NA,NA,graduated_college,big,NA,English,male,6750,You and your friend see the following:,1,1587393243057,NA,It is big relative to other,NA,0.5,NA,NA,congruent,custom_main_text1,big,Your friend says: <br/><b>That's a big goose.</b>
2188,What do you think your friend is saying is it small relative to?,NA,images/eagle.png,images/bird-parade-basic.png,33,NA,NA,NA,No,2,birds1,Jennifer,NA,NA,yes,Your friend goes ahead of you. You see your friend in the distance:,NA,subj,eagle,41,eagles,NA,NA,graduated_college,big,NA,English,male,4881,You and your friend see the following:,2,1587393243057,NA,It is small relative to other,NA,0.5,NA,NA,incongruent,custom_main_text1,small,Your friend says: <br/><b>That eagle is small.</b>
2188,What do you think your friend is saying is it small relative to?,NA,images/chihuahua.png,images/dog-parade-basic.png,33,NA,NA,NA,No,2,dogs1,Jennifer,NA,NA,yes,Your friend goes ahead of you. You see your friend in the distance:,NA,subj,chihuahua,41,dogs,NA,NA,graduated_college,small,NA,English,male,2509,You and your friend see the following:,3,1587393243057,NA,It is small relative to other,NA,0.5,NA,NA,congruent,custom_main_text1,small,Your friend says: <br/><b>That chihuahua is small.</b>
2188,What do you think your friend is saying is it big relative to?,NA,images/sunflower.png,images/flower-parade-basic.png,33,NA,NA,NA,No,2,flowers,Jennifer,NA,NA,yes,Your friend goes ahead of you. You see your friend in the distance:,NA,pred,sunflower,41,flowers,NA,NA,graduated_college,big,NA,English,male,2623,You and your friend see the following:,4,1587393243057,NA,It is big relative to other,NA,0.5,NA,NA,congruent,custom_main_text1,big,Your friend says: <br/><b>That's a big sunflower.</b>
2188,NA,swordfish,NA,NA,33,warmup/goldfish2.png,swordfish,This is a,No,2,fish,Jennifer,NA,goldfish,yes,Your turn! Please label the pictures below.,NA,NA,NA,41,NA,NA,warmup/swordfish2.png,graduated_college,NA,NA,English,male,NA,NA,1,1587393243057,1,NA,This is a,0.5,goldfish,NA,NA,warmup2,NA,NA
2188,NA,pug,NA,NA,33,warmup/great-dane2.png,pug,This is a,No,2,dogs2,Jennifer,NA,great dane,yes,Your turn! Please label the pictures below.,NA,NA,NA,41,NA,NA,warmup/pug2.png,graduated_college,NA,NA,English,male,NA,NA,2,1587393243057,1,NA,This is a,0.5,great dane,NA,NA,warmup2,NA,NA
2188,NA,redwood,NA,NA,33,warmup/bonsai2.png,redwood or sequoia (choose one),This is a,No,2,trees,Jennifer,NA,bonsai,yes,Your turn! Please label the pictures below.,NA,NA,NA,41,NA,NA,warmup/redwood2.png,graduated_college,NA,NA,English,male,NA,NA,3,1587393243057,1,NA,This is a,0.5,bonsai,NA,NA,warmup2,NA,NA
2188,NA,canary,NA,NA,33,warmup/ostrich2.png,canary,This is a,No,2,birds3,Jennifer,NA,ostrich,yes,Your turn! Please label the pictures below.,NA,NA,NA,41,NA,NA,warmup/canary2.png,graduated_college,NA,NA,English,male,NA,NA,4,1587393243057,1,NA,This is an,0.5,ostrich,NA,NA,warmup2,NA,NA
2188,What do you think your friend is saying is it big relative to?,NA,images/canary.png,images/bird-parade-basic3.png,33,NA,NA,NA,No,2,birds3,Jennifer,NA,NA,yes,Your friend goes ahead of you. You see your friend in the distance:,NA,pred,canary,41,canaries,NA,NA,graduated_college,small,NA,English,male,4358,You and your friend see the following:,1,1587393243057,NA,It is big relative to other,NA,0.5,NA,NA,incongruent,custom_main_text2,big,Your friend says: <br/><b>That's a big canary.</b>
2188,What do you think your friend is saying is it big relative to?,NA,images/swordfish.png,images/fish-parade-basic.png,33,NA,NA,NA,No,2,fish,Jennifer,NA,NA,yes,Your friend goes ahead of you. You see your friend in the distance:,NA,subj,swordfish,41,fish,NA,NA,graduated_college,big,NA,English,male,2402,You and your friend see the following:,2,1587393243057,NA,It is big relative to other,NA,0.5,NA,NA,congruent,custom_main_text2,big,Your friend says: <br/><b>That swordfish is big.</b>
2188,What do you think your friend is saying is it big relative to?,NA,images/bonsai.png,images/tree-parade-basic.png,33,NA,NA,NA,No,2,trees,Jennifer,NA,NA,yes,Your friend goes ahead of you. You see your friend in the distance:,NA,pred,bonsai,41,bonsai,NA,NA,graduated_college,small,NA,English,male,2916,You and your friend see the following:,3,1587393243057,NA,It is big relative to other,NA,0.5,NA,NA,incongruent,custom_main_text2,big,Your friend says: <br/><b>That's a big bonsai.</b>
2188,What do you think your friend is saying is it big relative to?,NA,images/pug.png,images/dog-parade-basic2.png,33,NA,NA,NA,No,2,dogs2,Jennifer,NA,NA,yes,Your friend goes ahead of you. You see your friend in the distance:,NA,subj,pug,41,pugs,NA,NA,graduated_college,small,NA,English,male,2773,You and your friend see the following:,4,1587393243057,NA,It is big relative to other,NA,0.5,NA,NA,incongruent,custom_main_text2,big,Your friend says: <br/><b>That pug is big.</b>
2187,<i>What do you think Speaker A meant? </i>,NA,NA,NA,33,NA,NA,NA,NA,NA,NA,mary,1,NA,yes,NA,"<b> Speaker A: ""The Empire State Building is tall.""</b>",NA,NA,49,tall\nbuilding,NA,NA,NA,NA,comp_class_warmup,NA,NA,NA,In the main trials you will be asked to rephrase something a person said. The utterance will contain a word that is <i>relative</i> and your task is to figure out what it is relative to. <br /> <br /> For example: <br />,1,1587392996229,1,The Empire State Building is tall relative to other,NA,NA,NA,"buildings, skyscrapers, houses, constructions (choose one)",NA,comp_class_warmup,NA,NA
2187,<i>What do you think Speaker A meant? </i>,NA,NA,NA,33,NA,NA,NA,NA,NA,NA,mary,1,NA,yes,NA,"<b> Speaker A: ""The Empire State Building is tall.""</b>",NA,NA,49,tall\nbuildings,NA,NA,NA,NA,comp_class_warmup,NA,NA,NA,In the main trials you will be asked to rephrase something a person said. The utterance will contain a word that is <i>relative</i> and your task is to figure out what it is relative to. <br /> <br /> For example: <br />,1,1587392996229,2,The Empire State Building is tall relative to other,NA,NA,NA,"buildings, skyscrapers, houses, constructions (choose one)",NA,comp_class_warmup,NA,NA
2187,<i>What do you think Speaker A meant? </i>,NA,NA,NA,33,NA,NA,NA,NA,NA,NA,mary,1,NA,yes,NA,"<b> Speaker A: ""The Empire State Building is tall.""</b>",NA,NA,49,tall\nbuildings,NA,NA,NA,NA,comp_class_warmup,NA,NA,NA,In the main trials you will be asked to rephrase something a person said. The utterance will contain a word that is <i>relative</i> and your task is to figure out what it is relative to. <br /> <br /> For example: <br />,1,1587392996229,3,The Empire State Building is tall relative to other,NA,NA,NA,"buildings, skyscrapers, houses, constructions (choose one)",NA,comp_class_warmup,NA,NA
2187,<i>What do you think Speaker A meant? </i>,NA,NA,NA,33,NA,NA,NA,NA,NA,NA,mary,1,NA,yes,NA,"<b> Speaker A: ""The Empire State Building is tall.""</b>",NA,NA,49,buildings,NA,NA,NA,NA,comp_class_warmup,NA,NA,NA,In the main trials you will be asked to rephrase something a person said. The utterance will contain a word that is <i>relative</i> and your task is to figure out what it is relative to. <br /> <br /> For example: <br />,1,1587392996229,4,The Empire State Building is tall relative to other,NA,NA,NA,"buildings, skyscrapers, houses, constructions (choose one)",NA,comp_class_warmup,NA,NA
2187,NA,swordfish,NA,NA,33,warmup/goldfish2.png,swordfish,This is a,NA,NA,fish,mary,NA,goldfish,yes,Your turn! Please label the pictures below.,NA,NA,NA,49,NA,NA,warmup/swordfish2.png,NA,NA,NA,NA,NA,NA,NA,1,1587392996229,1,NA,This is a,NA,goldfish,NA,NA,warmup1,NA,NA
2187,NA,chihuahua,NA,NA,33,warmup/doberman2.png,chihuahua,This is a,NA,NA,dogs1,mary,NA,doberman,yes,Your turn! Please label the pictures below.,NA,NA,NA,49,NA,NA,warmup/chihuahua2.png,NA,NA,NA,NA,NA,NA,NA,2,1587392996229,1,NA,This is a,NA,doberman,NA,NA,warmup1,NA,NA
2187,NA,redwood,NA,NA,33,warmup/bonsai2.png,redwood or sequoia (choose one),This is a,NA,NA,trees,mary,NA,bonsai,yes,Your turn! Please label the pictures below.,NA,NA,NA,49,NA,NA,warmup/redwood2.png,NA,NA,NA,NA,NA,NA,NA,3,1587392996229,1,NA,This is a,NA,bonsai,NA,NA,warmup1,NA,NA
2187,NA,dandelion,NA,NA,33,warmup/sunflower2.png,dandelion,This is a,NA,NA,flowers,mary,NA,sunflower,yes,Your turn! Please label the pictures below.,NA,NA,NA,49,NA,NA,warmup/dandelion2.png,NA,NA,NA,NA,NA,NA,NA,4,1587392996229,1,NA,This is a,NA,sunflower,NA,NA,warmup1,NA,NA
2187,What do you think your friend is saying is it small relative to?,NA,images/sunflower.png,images/flower-parade-basic.png,33,NA,NA,NA,NA,NA,flowers,mary,NA,NA,yes,Your friend goes ahead of you. You see your friend in the distance:,NA,subj,sunflower,49,man,NA,NA,NA,big,NA,NA,NA,7136,You and your friend see the following:,1,1587392996229,NA,It is small relative to other,NA,NA,NA,NA,incongruent,custom_main_text1,small,Your friend says: <br/><b>That sunflower is small.</b>
2187,What do you think your friend is saying is it small relative to?,NA,images/chihuahua.png,images/dog-parade-basic.png,33,NA,NA,NA,NA,NA,dogs1,mary,NA,NA,yes,Your friend goes ahead of you. You see your friend in the distance:,NA,subj,chihuahua,49,doberman,NA,NA,NA,small,NA,NA,NA,18796,You and your friend see the following:,2,1587392996229,NA,It is small relative to other,NA,NA,NA,NA,congruent,custom_main_text1,small,Your friend says: <br/><b>That chihuahua is small.</b>
2187,What do you think your friend is saying is it big relative to?,NA,images/bonsai.png,images/tree-parade-basic.png,33,NA,NA,NA,NA,NA,trees,mary,NA,NA,yes,Your friend goes ahead of you. You see your friend in the distance:,NA,pred,bonsai,49,redwood,NA,NA,NA,small,NA,NA,NA,5202,You and your friend see the following:,3,1587392996229,NA,It is big relative to other,NA,NA,NA,NA,incongruent,custom_main_text1,big,Your friend says: <br/><b>That's a big bonsai.</b>
2187,What do you think your friend is saying is it big relative to?,NA,images/swordfish.png,images/fish-parade-basic.png,33,NA,NA,NA,NA,NA,fish,mary,NA,NA,yes,Your friend goes ahead of you. You see your friend in the distance:,NA,pred,swordfish,49,goldfish,NA,NA,NA,big,NA,NA,NA,5264,You and your friend see the following:,4,1587392996229,NA,It is big relative to other,NA,NA,NA,NA,congruent,custom_main_text1,big,Your friend says: <br/><b>That's a big swordfish.</b>
2187,NA,hummingbird,NA,NA,33,warmup/eagle2.png,hummingbird,This is a,NA,NA,birds1,mary,NA,eagle,yes,Your turn! Please label the pictures below.,NA,NA,NA,49,NA,NA,warmup/hummingbird2.png,NA,NA,NA,NA,NA,NA,NA,1,1587392996229,1,NA,This is an,NA,eagle,NA,NA,warmup2,NA,NA
2187,NA,canary,NA,NA,33,warmup/ostrich2.png,canary,This is a,NA,NA,birds3,mary,NA,ostrich,yes,Your turn! Please label the pictures below.,NA,NA,NA,49,NA,NA,warmup/canary2.png,NA,NA,NA,NA,NA,NA,NA,2,1587392996229,1,NA,This is an,NA,ostrich,NA,NA,warmup2,NA,NA
2187,NA,goose,NA,NA,33,warmup/sparrow2.png,goose,This is a,NA,NA,birds2,mary,NA,sparrow,yes,Your turn! Please label the pictures below.,NA,NA,NA,49,NA,NA,warmup/goose2.png,NA,NA,NA,NA,NA,NA,NA,3,1587392996229,1,NA,This is a,NA,sparrow,NA,NA,warmup2,NA,NA
2187,NA,pug,NA,NA,33,warmup/great-dane2.png,pug,This is a,NA,NA,dogs2,mary,NA,great dane,yes,Your turn! Please label the pictures below.,NA,NA,NA,49,NA,NA,warmup/pug2.png,NA,NA,NA,NA,NA,NA,NA,4,1587392996229,1,NA,This is a,NA,great dane,NA,NA,warmup2,NA,NA
2187,What do you think your friend is saying is it small relative to?,NA,images/pug.png,images/dog-parade-basic2.png,33,NA,NA,NA,NA,NA,dogs2,mary,NA,NA,yes,Your friend goes ahead of you. You see your friend in the distance:,NA,subj,pug,49,great dane,NA,NA,NA,small,NA,NA,NA,11538,You and your friend see the following:,1,1587392996229,NA,It is small relative to other,NA,NA,NA,NA,congruent,custom_main_text2,small,Your friend says: <br/><b>That pug is small.</b>
2187,What do you think your friend is saying is it big relative to?,NA,images/goose.png,images/bird-parade-basic2.png,33,NA,NA,NA,NA,NA,birds2,mary,NA,NA,yes,Your friend goes ahead of you. You see your friend in the distance:,NA,pred,goose,49,sparrow,NA,NA,NA,big,NA,NA,NA,15322,You and your friend see the following:,2,1587392996229,NA,It is big relative to other,NA,NA,NA,NA,congruent,custom_main_text2,big,Your friend says: <br/><b>That's a big goose.</b>
2187,What do you think your friend is saying is it small relative to?,NA,images/eagle.png,images/bird-parade-basic.png,33,NA,NA,NA,NA,NA,birds1,mary,NA,NA,yes,Your friend goes ahead of you. You see your friend in the distance:,NA,subj,eagle,49,hummingbird,NA,NA,NA,big,NA,NA,NA,16445,You and your friend see the following:,3,1587392996229,NA,It is small relative to other,NA,NA,NA,NA,incongruent,custom_main_text2,small,Your friend says: <br/><b>That eagle is small.</b>
2187,What do you think your friend is saying is it big relative to?,NA,images/canary.png,images/bird-parade-basic3.png,33,NA,NA,NA,NA,NA,birds3,mary,NA,NA,yes,Your friend goes ahead of you. You see your friend in the distance:,NA,pred,canary,49,osrich,NA,NA,NA,small,NA,NA,NA,7873,You and your friend see the following:,4,1587392996229,NA,It is big relative to other,NA,NA,NA,NA,incongruent,custom_main_text2,big,Your friend says: <br/><b>That's a big canary.</b>
2186,<i>What do you think Speaker A meant? </i>,NA,NA,NA,33,NA,NA,NA,NA,2,NA,elizabeth,1,NA,yes,NA,"<b> Speaker A: ""The Empire State Building is tall.""</b>",NA,NA,40,buildings,NA,NA,graduated_college,NA,comp_class_warmup,ENGLISH,male,NA,In the main trials you will be asked to rephrase something a person said. The utterance will contain a word that is <i>relative</i> and your task is to figure out what it is relative to. <br /> <br /> For example: <br />,1,1587391874087,1,The Empire State Building is tall relative to other,NA,1,NA,"buildings, skyscrapers, houses, constructions (choose one)",NA,comp_class_warmup,NA,NA
2186,NA,chihuahua,NA,NA,33,warmup/doberman2.png,chihuahua,This is a,NA,2,dogs1,elizabeth,NA,doberman,yes,Your turn! Please label the pictures below.,NA,NA,NA,40,NA,NA,warmup/chihuahua2.png,graduated_college,NA,NA,ENGLISH,male,NA,NA,1,1587391874087,1,NA,This is a,1,doberman,NA,NA,warmup1,NA,NA
2186,NA,hummingbird,NA,NA,33,warmup/eagle2.png,hummingbird,This is a,NA,2,birds1,elizabeth,NA,eagle,yes,Your turn! Please label the pictures below.,NA,NA,NA,40,NA,NA,warmup/hummingbird2.png,graduated_college,NA,NA,ENGLISH,male,NA,NA,2,1587391874087,1,NA,This is an,1,eagle,NA,NA,warmup1,NA,NA
2186,NA,canary,NA,NA,33,warmup/ostrich2.png,canary,This is a,NA,2,birds3,elizabeth,NA,ostrich,yes,Your turn! Please label the pictures below.,NA,NA,NA,40,NA,NA,warmup/canary2.png,graduated_college,NA,NA,ENGLISH,male,NA,NA,3,1587391874087,1,NA,This is an,1,ostrich,NA,NA,warmup1,NA,NA
2186,NA,swordfish,NA,NA,33,warmup/goldfish2.png,swordfish,This is a,NA,2,fish,elizabeth,NA,goldfish,yes,Your turn! Please label the pictures below.,NA,NA,NA,40,NA,NA,warmup/swordfish2.png,graduated_college,NA,NA,ENGLISH,male,NA,NA,4,1587391874087,1,NA,This is a,1,goldfish,NA,NA,warmup1,NA,NA
2186,What do you think your friend is saying is it small relative to?,NA,images/hummingbird.png,images/bird-parade-basic.png,33,NA,NA,NA,NA,2,birds1,elizabeth,NA,NA,yes,Your friend goes ahead of you. You see your friend in the distance:,NA,subj,hummingbird,40,birds,NA,NA,graduated_college,small,NA,ENGLISH,male,39218,You and your friend see the following:,1,1587391874087,NA,It is small relative to other,NA,1,NA,NA,congruent,custom_main_text1,small,Your friend says: <br/><b>That hummingbird is small.</b>
2186,What do you think your friend is saying is it small relative to?,NA,images/doberman.png,images/dog-parade-basic.png,33,NA,NA,NA,NA,2,dogs1,elizabeth,NA,NA,yes,Your friend goes ahead of you. You see your friend in the distance:,NA,subj,doberman,40,dogs,NA,NA,graduated_college,big,NA,ENGLISH,male,12072,You and your friend see the following:,2,1587391874087,NA,It is small relative to other,NA,1,NA,NA,incongruent,custom_main_text1,small,Your friend says: <br/><b>That doberman is small.</b>
2186,What do you think your friend is saying is it big relative to?,NA,images/goldfish.png,images/fish-parade-basic.png,33,NA,NA,NA,NA,2,fish,elizabeth,NA,NA,yes,Your friend goes ahead of you. You see your friend in the distance:,NA,pred,goldfish,40,fish,NA,NA,graduated_college,small,NA,ENGLISH,male,10462,You and your friend see the following:,3,1587391874087,NA,It is big relative to other,NA,1,NA,NA,incongruent,custom_main_text1,big,Your friend says: <br/><b>That's a big goldfish.</b>
2186,What do you think your friend is saying is it small relative to?,NA,images/ostrich.png,images/bird-parade-basic3.png,33,NA,NA,NA,NA,2,birds3,elizabeth,NA,NA,yes,Your friend goes ahead of you. You see your friend in the distance:,NA,subj,ostrich,40,ostrich,NA,NA,graduated_college,big,NA,ENGLISH,male,28478,You and your friend see the following:,4,1587391874087,NA,It is small relative to other,NA,1,NA,NA,incongruent,custom_main_text1,small,Your friend says: <br/><b>That ostrich is small.</b>
2186,NA,pug,NA,NA,33,warmup/great-dane2.png,pug,This is a,NA,2,dogs2,elizabeth,NA,great dane,yes,Your turn! Please label the pictures below.,NA,NA,NA,40,NA,NA,warmup/pug2.png,graduated_college,NA,NA,ENGLISH,male,NA,NA,1,1587391874087,1,NA,This is a,1,great dane,NA,NA,warmup2,NA,NA
2186,NA,redwood,NA,NA,33,warmup/bonsai2.png,redwood or sequoia (choose one),This is a,NA,2,trees,elizabeth,NA,bonsai,yes,Your turn! Please label the pictures below.,NA,NA,NA,40,NA,NA,warmup/redwood2.png,graduated_college,NA,NA,ENGLISH,male,NA,NA,2,1587391874087,1,NA,This is a,1,bonsai,NA,NA,warmup2,NA,NA
2186,NA,goose,NA,NA,33,warmup/sparrow2.png,goose,This is a,NA,2,birds2,elizabeth,NA,sparrow,yes,Your turn! Please label the pictures below.,NA,NA,NA,40,NA,NA,warmup/goose2.png,graduated_college,NA,NA,ENGLISH,male,NA,NA,3,1587391874087,1,NA,This is a,1,sparrow,NA,NA,warmup2,NA,NA
2186,NA,dandelion,NA,NA,33,warmup/sunflower2.png,dandelion,This is a,NA,2,flowers,elizabeth,NA,sunflower,yes,Your turn! Please label the pictures below.,NA,NA,NA,40,NA,NA,warmup/dandelion2.png,graduated_college,NA,NA,ENGLISH,male,NA,NA,4,1587391874087,1,NA,This is a,1,sunflower,NA,NA,warmup2,NA,NA
2186,What do you think your friend is saying is it small relative to?,NA,images/dandelion.png,images/flower-parade-basic.png,33,NA,NA,NA,NA,2,flowers,elizabeth,NA,NA,yes,Your friend goes ahead of you. You see your friend in the distance:,NA,subj,dandelion,40,flowers,NA,NA,graduated_college,small,NA,ENGLISH,male,26744,You and your friend see the following:,1,1587391874087,NA,It is small relative to other,NA,1,NA,NA,congruent,custom_main_text2,small,Your friend says: <br/><b>That dandelion is small.</b>
2186,What do you think your friend is saying is it small relative to?,NA,images/bonsai.png,images/tree-parade-basic.png,33,NA,NA,NA,NA,2,trees,elizabeth,NA,NA,yes,Your friend goes ahead of you. You see your friend in the distance:,NA,pred,bonsai,40,trees,NA,NA,graduated_college,small,NA,ENGLISH,male,8905,You and your friend see the following:,2,1587391874087,NA,It is small relative to other,NA,1,NA,NA,congruent,custom_main_text2,small,Your friend says: <br/><b>That's a small bonsai.</b>
2186,What do you think your friend is saying is it small relative to?,NA,images/great-dane.png,images/dog-parade-basic2.png,33,NA,NA,NA,NA,2,dogs2,elizabeth,NA,NA,yes,Your friend goes ahead of you. You see your friend in the distance:,NA,pred,Great Dane,40,dogs,NA,NA,graduated_college,big,NA,ENGLISH,male,8438,You and your friend see the following:,3,1587391874087,NA,It is small relative to other,NA,1,NA,NA,incongruent,custom_main_text2,small,Your friend says: <br/><b>That's a small Great Dane.</b>
2186,What do you think your friend is saying is it big relative to?,NA,images/goose.png,images/bird-parade-basic2.png,33,NA,NA,NA,NA,2,birds2,elizabeth,NA,NA,yes,Your friend goes ahead of you. You see your friend in the distance:,NA,pred,goose,40,birds,NA,NA,graduated_college,big,NA,ENGLISH,male,11933,You and your friend see the following:,4,1587391874087,NA,It is big relative to other,NA,1,NA,NA,congruent,custom_main_text2,big,Your friend says: <br/><b>That's a big goose.</b>
2185,<i>What do you think Speaker A meant? </i>,NA,NA,NA,33,NA,NA,NA,NA,1,NA,margaret,1,NA,yes,NA,"<b> Speaker A: ""The Empire State Building is tall.""</b>",NA,NA,29,buildings,NA,NA,some_college,NA,comp_class_warmup,english,male,NA,In the main trials you will be asked to rephrase something a person said. The utterance will contain a word that is <i>relative</i> and your task is to figure out what it is relative to. <br /> <br /> For example: <br />,1,1587392266836,1,The Empire State Building is tall relative to other,NA,1.5,NA,"buildings, skyscrapers, houses, constructions (choose one)",NA,comp_class_warmup,NA,NA
2185,NA,swordfish,NA,NA,33,warmup/goldfish2.png,swordfish,This is a,NA,1,fish,margaret,NA,goldfish,yes,Your turn! Please label the pictures below.,NA,NA,NA,29,NA,NA,warmup/swordfish2.png,some_college,NA,NA,english,male,NA,NA,1,1587392266836,1,NA,This is a,1.5,goldfish,NA,NA,warmup1,NA,NA
2185,NA,hummingbird,NA,NA,33,warmup/eagle2.png,hummingbird,This is a,NA,1,birds1,margaret,NA,eagle,yes,Your turn! Please label the pictures below.,NA,NA,NA,29,NA,NA,warmup/hummingbird2.png,some_college,NA,NA,english,male,NA,NA,2,1587392266836,1,NA,This is an,1.5,eagle,NA,NA,warmup1,NA,NA
2185,NA,redwood,NA,NA,33,warmup/bonsai2.png,redwood or sequoia (choose one),This is a,NA,1,trees,margaret,NA,bonsai,yes,Your turn! Please label the pictures below.,NA,NA,NA,29,NA,NA,warmup/redwood2.png,some_college,NA,NA,english,male,NA,NA,3,1587392266836,1,NA,This is a,1.5,bonsai,NA,NA,warmup1,NA,NA
2185,NA,goose,NA,NA,33,warmup/sparrow2.png,goose,This is a,NA,1,birds2,margaret,NA,sparrow,yes,Your turn! Please label the pictures below.,NA,NA,NA,29,NA,NA,warmup/goose2.png,some_college,NA,NA,english,male,NA,NA,4,1587392266836,1,NA,This is a,1.5,sparrow,NA,NA,warmup1,NA,NA
2185,What do you think your friend is saying is it big relative to?,NA,images/goose.png,images/bird-parade-basic2.png,33,NA,NA,NA,NA,1,birds2,margaret,NA,NA,yes,Your friend goes ahead of you. You see your friend in the distance:,NA,subj,goose,29,geese,NA,NA,some_college,big,NA,english,male,14776,You and your friend see the following:,1,1587392266836,NA,It is big relative to other,NA,1.5,NA,NA,congruent,custom_main_text1,big,Your friend says: <br/><b>That goose is big.</b>
2185,What do you think your friend is saying is it big relative to?,NA,images/goldfish.png,images/fish-parade-basic.png,33,NA,NA,NA,NA,1,fish,margaret,NA,NA,yes,Your friend goes ahead of you. You see your friend in the distance:,NA,subj,goldfish,29,goldfish,NA,NA,some_college,small,NA,english,male,15472,You and your friend see the following:,2,1587392266836,NA,It is big relative to other,NA,1.5,NA,NA,incongruent,custom_main_text1,big,Your friend says: <br/><b>That goldfish is big.</b>
2185,What do you think your friend is saying is it big relative to?,NA,images/redwood.png,images/tree-parade-basic.png,33,NA,NA,NA,NA,1,trees,margaret,NA,NA,yes,Your friend goes ahead of you. You see your friend in the distance:,NA,pred,redwood,29,trees,NA,NA,some_college,big,NA,english,male,17376,You and your friend see the following:,3,1587392266836,NA,It is big relative to other,NA,1.5,NA,NA,congruent,custom_main_text1,big,Your friend says: <br/><b>That's a big redwood.</b>
2185,What do you think your friend is saying is it big relative to?,NA,images/hummingbird.png,images/bird-parade-basic.png,33,NA,NA,NA,NA,1,birds1,margaret,NA,NA,yes,Your friend goes ahead of you. You see your friend in the distance:,NA,subj,hummingbird,29,hummingbirds,NA,NA,some_college,small,NA,english,male,8225,You and your friend see the following:,4,1587392266836,NA,It is big relative to other,NA,1.5,NA,NA,incongruent,custom_main_text1,big,Your friend says: <br/><b>That hummingbird is big.</b>
2185,NA,chihuahua,NA,NA,33,warmup/doberman2.png,chihuahua,This is a,NA,1,dogs1,margaret,NA,doberman,yes,Your turn! Please label the pictures below.,NA,NA,NA,29,NA,NA,warmup/chihuahua2.png,some_college,NA,NA,english,male,NA,NA,1,1587392266836,1,NA,This is a,1.5,doberman,NA,NA,warmup2,NA,NA
2185,NA,canary,NA,NA,33,warmup/ostrich2.png,canary,This is a,NA,1,birds3,margaret,NA,ostrich,yes,Your turn! Please label the pictures below.,NA,NA,NA,29,NA,NA,warmup/canary2.png,some_college,NA,NA,english,male,NA,NA,2,1587392266836,1,NA,This is an,1.5,ostrich,NA,NA,warmup2,NA,NA
2185,NA,pug,NA,NA,33,warmup/great-dane2.png,pug,This is a,NA,1,dogs2,margaret,NA,great dane,yes,Your turn! Please label the pictures below.,NA,NA,NA,29,NA,NA,warmup/pug2.png,some_college,NA,NA,english,male,NA,NA,3,1587392266836,1,NA,This is a,1.5,great dane,NA,NA,warmup2,NA,NA
2185,NA,dandelion,NA,NA,33,warmup/sunflower2.png,dandelion,This is a,NA,1,flowers,margaret,NA,sunflower,yes,Your turn! Please label the pictures below.,NA,NA,NA,29,NA,NA,warmup/dandelion2.png,some_college,NA,NA,english,male,NA,NA,4,1587392266836,1,NA,This is a,1.5,sunflower,NA,NA,warmup2,NA,NA
2185,What do you think your friend is saying is it big relative to?,NA,images/doberman.png,images/dog-parade-basic.png,33,NA,NA,NA,NA,1,dogs1,margaret,NA,NA,yes,Your friend goes ahead of you. You see your friend in the distance:,NA,subj,doberman,29,dogs,NA,NA,some_college,big,NA,english,male,15231,You and your friend see the following:,1,1587392266836,NA,It is big relative to other,NA,1.5,NA,NA,congruent,custom_main_text2,big,Your friend says: <br/><b>That doberman is big.</b>
2185,What do you think your friend is saying is it small relative to?,NA,images/dandelion.png,images/flower-parade-basic.png,33,NA,NA,NA,NA,1,flowers,margaret,NA,NA,yes,Your friend goes ahead of you. You see your friend in the distance:,NA,pred,dandelion,29,dandelions,NA,NA,some_college,small,NA,english,male,11473,You and your friend see the following:,2,1587392266836,NA,It is small relative to other,NA,1.5,NA,NA,congruent,custom_main_text2,small,Your friend says: <br/><b>That's a small dandelion.</b>
2185,What do you think your friend is saying is it big relative to?,NA,images/pug.png,images/dog-parade-basic2.png,33,NA,NA,NA,NA,1,dogs2,margaret,NA,NA,yes,Your friend goes ahead of you. You see your friend in the distance:,NA,pred,pug,29,pugs,NA,NA,some_college,small,NA,english,male,6824,You and your friend see the following:,3,1587392266836,NA,It is big relative to other,NA,1.5,NA,NA,incongruent,custom_main_text2,big,Your friend says: <br/><b>That's a big pug.</b>
2185,What do you think your friend is saying is it small relative to?,NA,images/ostrich.png,images/bird-parade-basic3.png,33,NA,NA,NA,NA,1,birds3,margaret,NA,NA,yes,Your friend goes ahead of you. You see your friend in the distance:,NA,pred,ostrich,29,ostriches,NA,NA,some_college,big,NA,english,male,8312,You and your friend see the following:,4,1587392266836,NA,It is small relative to other,NA,1.5,NA,NA,incongruent,custom_main_text2,small,Your friend says: <br/><b>That's a small ostrich.</b>
2184,<i>What do you think Speaker A meant? </i>,NA,NA,NA,33,NA,NA,NA,No,2,NA,jennifer,1,NA,yes,NA,"<b> Speaker A: ""The Empire State Building is tall.""</b>",NA,NA,31,buildings,NA--thanks!,NA,higher_degree,NA,comp_class_warmup,English,female,NA,In the main trials you will be asked to rephrase something a person said. The utterance will contain a word that is <i>relative</i> and your task is to figure out what it is relative to. <br /> <br /> For example: <br />,1,1587392405309,1,The Empire State Building is tall relative to other,NA,1,NA,"buildings, skyscrapers, houses, constructions (choose one)",NA,comp_class_warmup,NA,NA
2184,NA,chihuahua,NA,NA,33,warmup/doberman2.png,chihuahua,This is a,No,2,dogs1,jennifer,NA,doberman,yes,Your turn! Please label the pictures below.,NA,NA,NA,31,NA,NA--thanks!,warmup/chihuahua2.png,higher_degree,NA,NA,English,female,NA,NA,1,1587392405309,1,NA,This is a,1,doberman,NA,NA,warmup1,NA,NA
2184,NA,canary,NA,NA,33,warmup/ostrich2.png,canary,This is a,No,2,birds3,jennifer,NA,ostrich,yes,Your turn! Please label the pictures below.,NA,NA,NA,31,NA,NA--thanks!,warmup/canary2.png,higher_degree,NA,NA,English,female,NA,NA,2,1587392405309,1,NA,This is an,1,ostrich,NA,NA,warmup1,NA,NA
2184,NA,hummingbird,NA,NA,33,warmup/eagle2.png,hummingbird,This is a,No,2,birds1,jennifer,NA,eagle,yes,Your turn! Please label the pictures below.,NA,NA,NA,31,NA,NA--thanks!,warmup/hummingbird2.png,higher_degree,NA,NA,English,female,NA,NA,3,1587392405309,1,NA,This is an,1,eagle,NA,NA,warmup1,NA,NA
2184,NA,redwood,NA,NA,33,warmup/bonsai2.png,redwood or sequoia (choose one),This is a,No,2,trees,jennifer,NA,bonsai,yes,Your turn! Please label the pictures below.,NA,NA,NA,31,NA,NA--thanks!,warmup/redwood2.png,higher_degree,NA,NA,English,female,NA,NA,4,1587392405309,1,NA,This is a,1,bonsai,NA,NA,warmup1,NA,NA
2184,What do you think your friend is saying is it big relative to?,NA,images/hummingbird.png,images/bird-parade-basic.png,33,NA,NA,NA,No,2,birds1,jennifer,NA,NA,yes,Your friend goes ahead of you. You see your friend in the distance:,NA,subj,hummingbird,31,hummingbirds,NA--thanks!,NA,higher_degree,small,NA,English,female,15781,You and your friend see the following:,1,1587392405309,NA,It is big relative to other,NA,1,NA,NA,incongruent,custom_main_text1,big,Your friend says: <br/><b>That hummingbird is big.</b>
2184,What do you think your friend is saying is it big relative to?,NA,images/ostrich.png,images/bird-parade-basic3.png,33,NA,NA,NA,No,2,birds3,jennifer,NA,NA,yes,Your friend goes ahead of you. You see your friend in the distance:,NA,subj,ostrich,31,birds,NA--thanks!,NA,higher_degree,big,NA,English,female,8420,You and your friend see the following:,2,1587392405309,NA,It is big relative to other,NA,1,NA,NA,congruent,custom_main_text1,big,Your friend says: <br/><b>That ostrich is big.</b>
2184,What do you think your friend is saying is it big relative to?,NA,images/redwood.png,images/tree-parade-basic.png,33,NA,NA,NA,No,2,trees,jennifer,NA,NA,yes,Your friend goes ahead of you. You see your friend in the distance:,NA,pred,redwood,31,trees,NA--thanks!,NA,higher_degree,big,NA,English,female,6379,You and your friend see the following:,3,1587392405309,NA,It is big relative to other,NA,1,NA,NA,congruent,custom_main_text1,big,Your friend says: <br/><b>That's a big redwood.</b>
2184,What do you think your friend is saying is it big relative to?,NA,images/doberman.png,images/dog-parade-basic.png,33,NA,NA,NA,No,2,dogs1,jennifer,NA,NA,yes,Your friend goes ahead of you. You see your friend in the distance:,NA,subj,doberman,31,dogs,NA--thanks!,NA,higher_degree,big,NA,English,female,5989,You and your friend see the following:,4,1587392405309,NA,It is big relative to other,NA,1,NA,NA,congruent,custom_main_text1,big,Your friend says: <br/><b>That doberman is big.</b>
2184,NA,swordfish,NA,NA,33,warmup/goldfish2.png,swordfish,This is a,No,2,fish,jennifer,NA,goldfish,yes,Your turn! Please label the pictures below.,NA,NA,NA,31,NA,NA--thanks!,warmup/swordfish2.png,higher_degree,NA,NA,English,female,NA,NA,1,1587392405309,1,NA,This is a,1,goldfish,NA,NA,warmup2,NA,NA
2184,NA,pug,NA,NA,33,warmup/great-dane2.png,pug,This is a,No,2,dogs2,jennifer,NA,great dane,yes,Your turn! Please label the pictures below.,NA,NA,NA,31,NA,NA--thanks!,warmup/pug2.png,higher_degree,NA,NA,English,female,NA,NA,2,1587392405309,1,NA,This is a,1,great dane,NA,NA,warmup2,NA,NA
2184,NA,dandelion,NA,NA,33,warmup/sunflower2.png,dandelion,This is a,No,2,flowers,jennifer,NA,sunflower,yes,Your turn! Please label the pictures below.,NA,NA,NA,31,NA,NA--thanks!,warmup/dandelion2.png,higher_degree,NA,NA,English,female,NA,NA,3,1587392405309,1,NA,This is a,1,sunflower,NA,NA,warmup2,NA,NA
2184,NA,goose,NA,NA,33,warmup/sparrow2.png,goose,This is a,No,2,birds2,jennifer,NA,sparrow,yes,Your turn! Please label the pictures below.,NA,NA,NA,31,NA,NA--thanks!,warmup/goose2.png,higher_degree,NA,NA,English,female,NA,NA,4,1587392405309,1,NA,This is a,1,sparrow,NA,NA,warmup2,NA,NA
2184,What do you think your friend is saying is it small relative to?,NA,images/great-dane.png,images/dog-parade-basic2.png,33,NA,NA,NA,No,2,dogs2,jennifer,NA,NA,yes,Your friend goes ahead of you. You see your friend in the distance:,NA,subj,Great Dane,31,great danes,NA--thanks!,NA,higher_degree,big,NA,English,female,8406,You and your friend see the following:,1,1587392405309,NA,It is small relative to other,NA,1,NA,NA,incongruent,custom_main_text2,small,Your friend says: <br/><b>That Great Dane is small.</b>
2184,What do you think your friend is saying is it small relative to?,NA,images/dandelion.png,images/flower-parade-basic.png,33,NA,NA,NA,No,2,flowers,jennifer,NA,NA,yes,Your friend goes ahead of you. You see your friend in the distance:,NA,pred,dandelion,31,flowers,NA--thanks!,NA,higher_degree,small,NA,English,female,5497,You and your friend see the following:,2,1587392405309,NA,It is small relative to other,NA,1,NA,NA,congruent,custom_main_text2,small,Your friend says: <br/><b>That's a small dandelion.</b>
2184,What do you think your friend is saying is it big relative to?,NA,images/sparrow.png,images/bird-parade-basic2.png,33,NA,NA,NA,No,2,birds2,jennifer,NA,NA,yes,Your friend goes ahead of you. You see your friend in the distance:,NA,pred,sparrow,31,sparrows,NA--thanks!,NA,higher_degree,small,NA,English,female,3256,You and your friend see the following:,3,1587392405309,NA,It is big relative to other,NA,1,NA,NA,incongruent,custom_main_text2,big,Your friend says: <br/><b>That's a big sparrow.</b>
2184,What do you think your friend is saying is it big relative to?,NA,images/goldfish.png,images/fish-parade-basic.png,33,NA,NA,NA,No,2,fish,jennifer,NA,NA,yes,Your friend goes ahead of you. You see your friend in the distance:,NA,pred,goldfish,31,goldfish,NA--thanks!,NA,higher_degree,small,NA,English,female,3198,You and your friend see the following:,4,1587392405309,NA,It is big relative to other,NA,1,NA,NA,incongruent,custom_main_text2,big,Your friend says: <br/><b>That's a big goldfish.</b>
2183,<i>What do you think Speaker A meant? </i>,NA,NA,NA,33,NA,NA,NA,No glitches,1,NA,Elizabeth,1,NA,yes,NA,"<b> Speaker A: ""The Empire State Building is tall.""</b>",NA,NA,28,buildings,No further comments,NA,graduated_college,NA,comp_class_warmup,English,male,NA,In the main trials you will be asked to rephrase something a person said. The utterance will contain a word that is <i>relative</i> and your task is to figure out what it is relative to. <br /> <br /> For example: <br />,1,1587391943109,1,The Empire State Building is tall relative to other,NA,1,NA,"buildings, skyscrapers, houses, constructions (choose one)",NA,comp_class_warmup,NA,NA
2183,NA,canary,NA,NA,33,warmup/ostrich2.png,canary,This is a,No glitches,1,birds3,Elizabeth,NA,ostrich,yes,Your turn! Please label the pictures below.,NA,NA,NA,28,NA,No further comments,warmup/canary2.png,graduated_college,NA,NA,English,male,NA,NA,1,1587391943109,1,NA,This is an,1,ostrich,NA,NA,warmup1,NA,NA
2183,NA,hummingbird,NA,NA,33,warmup/eagle2.png,hummingbird,This is a,No glitches,1,birds1,Elizabeth,NA,eagle,yes,Your turn! Please label the pictures below.,NA,NA,NA,28,NA,No further comments,warmup/hummingbird2.png,graduated_college,NA,NA,English,male,NA,NA,2,1587391943109,1,NA,This is an,1,eagle,NA,NA,warmup1,NA,NA
2183,NA,pug,NA,NA,33,warmup/great-dane2.png,pug,This is a,No glitches,1,dogs2,Elizabeth,NA,great dane,yes,Your turn! Please label the pictures below.,NA,NA,NA,28,NA,No further comments,warmup/pug2.png,graduated_college,NA,NA,English,male,NA,NA,3,1587391943109,1,NA,This is a,1,great dane,NA,NA,warmup1,NA,NA
2183,NA,goose,NA,NA,33,warmup/sparrow2.png,goose,This is a,No glitches,1,birds2,Elizabeth,NA,sparrow,yes,Your turn! Please label the pictures below.,NA,NA,NA,28,NA,No further comments,warmup/goose2.png,graduated_college,NA,NA,English,male,NA,NA,4,1587391943109,1,NA,This is a,1,sparrow,NA,NA,warmup1,NA,NA
2183,What do you think your friend is saying is it big relative to?,NA,images/eagle.png,images/bird-parade-basic.png,33,NA,NA,NA,No glitches,1,birds1,Elizabeth,NA,NA,yes,Your friend goes ahead of you. You see your friend in the distance:,NA,pred,eagle,28,birds,No further comments,NA,graduated_college,big,NA,English,male,11102,You and your friend see the following:,1,1587391943109,NA,It is big relative to other,NA,1,NA,NA,congruent,custom_main_text1,big,Your friend says: <br/><b>That's a big eagle.</b>
2183,What do you think your friend is saying is it small relative to?,NA,images/great-dane.png,images/dog-parade-basic2.png,33,NA,NA,NA,No glitches,1,dogs2,Elizabeth,NA,NA,yes,Your friend goes ahead of you. You see your friend in the distance:,NA,subj,Great Dane,28,large mammals,No further comments,NA,graduated_college,big,NA,English,male,19029,You and your friend see the following:,2,1587391943109,NA,It is small relative to other,NA,1,NA,NA,incongruent,custom_main_text1,small,Your friend says: <br/><b>That Great Dane is small.</b>
2183,What do you think your friend is saying is it small relative to?,NA,images/canary.png,images/bird-parade-basic3.png,33,NA,NA,NA,No glitches,1,birds3,Elizabeth,NA,NA,yes,Your friend goes ahead of you. You see your friend in the distance:,NA,subj,canary,28,birds,No further comments,NA,graduated_college,small,NA,English,male,8100,You and your friend see the following:,3,1587391943109,NA,It is small relative to other,NA,1,NA,NA,congruent,custom_main_text1,small,Your friend says: <br/><b>That canary is small.</b>
2183,What do you think your friend is saying is it small relative to?,NA,images/sparrow.png,images/bird-parade-basic2.png,33,NA,NA,NA,No glitches,1,birds2,Elizabeth,NA,NA,yes,Your friend goes ahead of you. You see your friend in the distance:,NA,subj,sparrow,28,birds,No further comments,NA,graduated_college,small,NA,English,male,4419,You and your friend see the following:,4,1587391943109,NA,It is small relative to other,NA,1,NA,NA,congruent,custom_main_text1,small,Your friend says: <br/><b>That sparrow is small.</b>
2183,NA,redwood,NA,NA,33,warmup/bonsai2.png,redwood or sequoia (choose one),This is a,No glitches,1,trees,Elizabeth,NA,bonsai,yes,Your turn! Please label the pictures below.,NA,NA,NA,28,NA,No further comments,warmup/redwood2.png,graduated_college,NA,NA,English,male,NA,NA,1,1587391943109,1,NA,This is a,1,bonsai,NA,NA,warmup2,NA,NA
2183,NA,swordfish,NA,NA,33,warmup/goldfish2.png,swordfish,This is a,No glitches,1,fish,Elizabeth,NA,goldfish,yes,Your turn! Please label the pictures below.,NA,NA,NA,28,NA,No further comments,warmup/swordfish2.png,graduated_college,NA,NA,English,male,NA,NA,2,1587391943109,1,NA,This is a,1,goldfish,NA,NA,warmup2,NA,NA
2183,NA,dandelion,NA,NA,33,warmup/sunflower2.png,dandelion,This is a,No glitches,1,flowers,Elizabeth,NA,sunflower,yes,Your turn! Please label the pictures below.,NA,NA,NA,28,NA,No further comments,warmup/dandelion2.png,graduated_college,NA,NA,English,male,NA,NA,3,1587391943109,1,NA,This is a,1,sunflower,NA,NA,warmup2,NA,NA
2183,NA,chihuahua,NA,NA,33,warmup/doberman2.png,chihuahua,This is a,No glitches,1,dogs1,Elizabeth,NA,doberman,yes,Your turn! Please label the pictures below.,NA,NA,NA,28,NA,No further comments,warmup/chihuahua2.png,graduated_college,NA,NA,English,male,NA,NA,4,1587391943109,1,NA,This is a,1,doberman,NA,NA,warmup2,NA,NA
2183,What do you think your friend is saying is it small relative to?,NA,images/dandelion.png,images/flower-parade-basic.png,33,NA,NA,NA,No glitches,1,flowers,Elizabeth,NA,NA,yes,Your friend goes ahead of you. You see your friend in the distance:,NA,pred,dandelion,28,flowers,No further comments,NA,graduated_college,small,NA,English,male,7264,You and your friend see the following:,1,1587391943109,NA,It is small relative to other,NA,1,NA,NA,congruent,custom_main_text2,small,Your friend says: <br/><b>That's a small dandelion.</b>
2183,What do you think your friend is saying is it big relative to?,NA,images/goldfish.png,images/fish-parade-basic.png,33,NA,NA,NA,No glitches,1,fish,Elizabeth,NA,NA,yes,Your friend goes ahead of you. You see your friend in the distance:,NA,subj,goldfish,28,goldfish,No further comments,NA,graduated_college,small,NA,English,male,20266,You and your friend see the following:,2,1587391943109,NA,It is big relative to other,NA,1,NA,NA,incongruent,custom_main_text2,big,Your friend says: <br/><b>That goldfish is big.</b>
2183,What do you think your friend is saying is it small relative to?,NA,images/doberman.png,images/dog-parade-basic.png,33,NA,NA,NA,No glitches,1,dogs1,Elizabeth,NA,NA,yes,Your friend goes ahead of you. You see your friend in the distance:,NA,pred,doberman,28,dobermans,No further comments,NA,graduated_college,big,NA,English,male,7138,You and your friend see the following:,3,1587391943109,NA,It is small relative to other,NA,1,NA,NA,incongruent,custom_main_text2,small,Your friend says: <br/><b>That's a small doberman.</b>
2183,What do you think your friend is saying is it small relative to?,NA,images/redwood.png,images/tree-parade-basic.png,33,NA,NA,NA,No glitches,1,trees,Elizabeth,NA,NA,yes,Your friend goes ahead of you. You see your friend in the distance:,NA,pred,redwood,28,redwoods,No further comments,NA,graduated_college,big,NA,English,male,5316,You and your friend see the following:,4,1587391943109,NA,It is small relative to other,NA,1,NA,NA,incongruent,custom_main_text2,small,Your friend says: <br/><b>That's a small redwood.</b>
2182,<i>What do you think Speaker A meant? </i>,NA,NA,NA,33,NA,NA,NA,No,2,NA,Barbara,1,NA,yes,NA,"<b> Speaker A: ""The Empire State Building is tall.""</b>",NA,NA,37,buildings,NA,NA,some_college,NA,comp_class_warmup,english,female,NA,In the main trials you will be asked to rephrase something a person said. The utterance will contain a word that is <i>relative</i> and your task is to figure out what it is relative to. <br /> <br /> For example: <br />,1,1587391243500,1,The Empire State Building is tall relative to other,NA,1,NA,"buildings, skyscrapers, houses, constructions (choose one)",NA,comp_class_warmup,NA,NA
2182,NA,redwood,NA,NA,33,warmup/bonsai2.png,redwood or sequoia (choose one),This is a,No,2,trees,Barbara,NA,bonsai,yes,Your turn! Please label the pictures below.,NA,NA,NA,37,NA,NA,warmup/redwood2.png,some_college,NA,NA,english,female,NA,NA,1,1587391243500,1,NA,This is a,1,bonsai,NA,NA,warmup1,NA,NA
2182,NA,pug,NA,NA,33,warmup/great-dane2.png,pug,This is a,No,2,dogs2,Barbara,NA,great dane,yes,Your turn! Please label the pictures below.,NA,NA,NA,37,NA,NA,warmup/pug2.png,some_college,NA,NA,english,female,NA,NA,2,1587391243500,1,NA,This is a,1,great dane,NA,NA,warmup1,NA,NA
2182,NA,dandelion,NA,NA,33,warmup/sunflower2.png,dandelion,This is a,No,2,flowers,Barbara,NA,sunflower,yes,Your turn! Please label the pictures below.,NA,NA,NA,37,NA,NA,warmup/dandelion2.png,some_college,NA,NA,english,female,NA,NA,3,1587391243500,1,NA,This is a,1,sunflower,NA,NA,warmup1,NA,NA
2182,NA,goose,NA,NA,33,warmup/sparrow2.png,goose,This is a,No,2,birds2,Barbara,NA,sparrow,yes,Your turn! Please label the pictures below.,NA,NA,NA,37,NA,NA,warmup/goose2.png,some_college,NA,NA,english,female,NA,NA,4,1587391243500,1,NA,This is a,1,sparrow,NA,NA,warmup1,NA,NA
2182,What do you think your friend is saying is it big relative to?,NA,images/great-dane.png,images/dog-parade-basic2.png,33,NA,NA,NA,No,2,dogs2,Barbara,NA,NA,yes,Your friend goes ahead of you. You see your friend in the distance:,NA,subj,Great Dane,37,dogs,NA,NA,some_college,big,NA,english,female,5420,You and your friend see the following:,1,1587391243500,NA,It is big relative to other,NA,1,NA,NA,congruent,custom_main_text1,big,Your friend says: <br/><b>That Great Dane is big.</b>
2182,What do you think your friend is saying is it big relative to?,NA,images/sunflower.png,images/flower-parade-basic.png,33,NA,NA,NA,No,2,flowers,Barbara,NA,NA,yes,Your friend goes ahead of you. You see your friend in the distance:,NA,subj,sunflower,37,flowers,NA,NA,some_college,big,NA,english,female,4107,You and your friend see the following:,2,1587391243500,NA,It is big relative to other,NA,1,NA,NA,congruent,custom_main_text1,big,Your friend says: <br/><b>That sunflower is big.</b>
2182,What do you think your friend is saying is it big relative to?,NA,images/sparrow.png,images/bird-parade-basic2.png,33,NA,NA,NA,No,2,birds2,Barbara,NA,NA,yes,Your friend goes ahead of you. You see your friend in the distance:,NA,subj,sparrow,37,sparrows,NA,NA,some_college,small,NA,english,female,10293,You and your friend see the following:,3,1587391243500,NA,It is big relative to other,NA,1,NA,NA,incongruent,custom_main_text1,big,Your friend says: <br/><b>That sparrow is big.</b>
2182,What do you think your friend is saying is it small relative to?,NA,images/redwood.png,images/tree-parade-basic.png,33,NA,NA,NA,No,2,trees,Barbara,NA,NA,yes,Your friend goes ahead of you. You see your friend in the distance:,NA,pred,redwood,37,redwoods,NA,NA,some_college,big,NA,english,female,5112,You and your friend see the following:,4,1587391243500,NA,It is small relative to other,NA,1,NA,NA,incongruent,custom_main_text1,small,Your friend says: <br/><b>That's a small redwood.</b>
2182,NA,canary,NA,NA,33,warmup/ostrich2.png,canary,This is a,No,2,birds3,Barbara,NA,ostrich,yes,Your turn! Please label the pictures below.,NA,NA,NA,37,NA,NA,warmup/canary2.png,some_college,NA,NA,english,female,NA,NA,1,1587391243500,1,NA,This is an,1,ostrich,NA,NA,warmup2,NA,NA
2182,NA,hummingbird,NA,NA,33,warmup/eagle2.png,hummingbird,This is a,No,2,birds1,Barbara,NA,eagle,yes,Your turn! Please label the pictures below.,NA,NA,NA,37,NA,NA,warmup/hummingbird2.png,some_college,NA,NA,english,female,NA,NA,2,1587391243500,1,NA,This is an,1,eagle,NA,NA,warmup2,NA,NA
2182,NA,chihuahua,NA,NA,33,warmup/doberman2.png,chihuahua,This is a,No,2,dogs1,Barbara,NA,doberman,yes,Your turn! Please label the pictures below.,NA,NA,NA,37,NA,NA,warmup/chihuahua2.png,some_college,NA,NA,english,female,NA,NA,3,1587391243500,1,NA,This is a,1,doberman,NA,NA,warmup2,NA,NA
2182,NA,swordfish,NA,NA,33,warmup/goldfish2.png,swordfish,This is a,No,2,fish,Barbara,NA,goldfish,yes,Your turn! Please label the pictures below.,NA,NA,NA,37,NA,NA,warmup/swordfish2.png,some_college,NA,NA,english,female,NA,NA,4,1587391243500,1,NA,This is a,1,goldfish,NA,NA,warmup2,NA,NA
2182,What do you think your friend is saying is it big relative to?,NA,images/goldfish.png,images/fish-parade-basic.png,33,NA,NA,NA,No,2,fish,Barbara,NA,NA,yes,Your friend goes ahead of you. You see your friend in the distance:,NA,pred,goldfish,37,goldfish,NA,NA,some_college,small,NA,english,female,6134,You and your friend see the following:,1,1587391243500,NA,It is big relative to other,NA,1,NA,NA,incongruent,custom_main_text2,big,Your friend says: <br/><b>That's a big goldfish.</b>
2182,What do you think your friend is saying is it small relative to?,NA,images/eagle.png,images/bird-parade-basic.png,33,NA,NA,NA,No,2,birds1,Barbara,NA,NA,yes,Your friend goes ahead of you. You see your friend in the distance:,NA,subj,eagle,37,eagles,NA,NA,some_college,big,NA,english,female,5841,You and your friend see the following:,2,1587391243500,NA,It is small relative to other,NA,1,NA,NA,incongruent,custom_main_text2,small,Your friend says: <br/><b>That eagle is small.</b>
2182,What do you think your friend is saying is it small relative to?,NA,images/canary.png,images/bird-parade-basic3.png,33,NA,NA,NA,No,2,birds3,Barbara,NA,NA,yes,Your friend goes ahead of you. You see your friend in the distance:,NA,pred,canary,37,canaries,NA,NA,some_college,small,NA,english,female,9049,You and your friend see the following:,3,1587391243500,NA,It is small relative to other,NA,1,NA,NA,congruent,custom_main_text2,small,Your friend says: <br/><b>That's a small canary.</b>
2182,What do you think your friend is saying is it small relative to?,NA,images/chihuahua.png,images/dog-parade-basic.png,33,NA,NA,NA,No,2,dogs1,Barbara,NA,NA,yes,Your friend goes ahead of you. You see your friend in the distance:,NA,pred,chihuahua,37,dogs,NA,NA,some_college,small,NA,english,female,3925,You and your friend see the following:,4,1587391243500,NA,It is small relative to other,NA,1,NA,NA,congruent,custom_main_text2,small,Your friend says: <br/><b>That's a small chihuahua.</b>
2181,<i>What do you think Speaker A meant? </i>,NA,NA,NA,33,NA,NA,NA,No,2,NA,mary,1,NA,yes,NA,"<b> Speaker A: ""The Empire State Building is tall.""</b>",NA,NA,28,top\ntop,Very interesting,NA,graduated_college,NA,comp_class_warmup,English,male,NA,In the main trials you will be asked to rephrase something a person said. The utterance will contain a word that is <i>relative</i> and your task is to figure out what it is relative to. <br /> <br /> For example: <br />,1,1587390425291,1,The Empire State Building is tall relative to other,NA,1,NA,"buildings, skyscrapers, houses, constructions (choose one)",NA,comp_class_warmup,NA,NA
2181,<i>What do you think Speaker A meant? </i>,NA,NA,NA,33,NA,NA,NA,No,2,NA,mary,1,NA,yes,NA,"<b> Speaker A: ""The Empire State Building is tall.""</b>",NA,NA,28,construction,Very interesting,NA,graduated_college,NA,comp_class_warmup,English,male,NA,In the main trials you will be asked to rephrase something a person said. The utterance will contain a word that is <i>relative</i> and your task is to figure out what it is relative to. <br /> <br /> For example: <br />,1,1587390425291,2,The Empire State Building is tall relative to other,NA,1,NA,"buildings, skyscrapers, houses, constructions (choose one)",NA,comp_class_warmup,NA,NA
2181,NA,emberizidae,NA,NA,33,warmup/ostrich2.png,canary,This is a,No,2,birds3,mary,NA,ostrich,yes,Your turn! Please label the pictures below.,NA,NA,NA,28,NA,Very interesting,warmup/canary2.png,graduated_college,NA,NA,English,male,NA,NA,1,1587390425291,1,NA,This is an,1,ostrich,NA,NA,warmup1,NA,NA
2181,NA,emberizidae,NA,NA,33,warmup/ostrich2.png,canary,This is a,No,2,birds3,mary,NA,ostrich,yes,Your turn! Please label the pictures below.,NA,NA,NA,28,NA,Very interesting,warmup/canary2.png,graduated_college,NA,NA,English,male,NA,NA,1,1587390425291,2,NA,This is an,1,ostrich,NA,NA,warmup1,NA,NA
2181,NA,emberizidae,NA,NA,33,warmup/ostrich2.png,canary,This is a,No,2,birds3,mary,NA,ostrich,yes,Your turn! Please label the pictures below.,NA,NA,NA,28,NA,Very interesting,warmup/canary2.png,graduated_college,NA,NA,English,male,NA,NA,1,1587390425291,3,NA,This is an,1,ostrich,NA,NA,warmup1,NA,NA
2181,NA,emberizidae,NA,NA,33,warmup/ostrich2.png,canary,This is a,No,2,birds3,mary,NA,ostrich,yes,Your turn! Please label the pictures below.,NA,NA,NA,28,NA,Very interesting,warmup/canary2.png,graduated_college,NA,NA,English,male,NA,NA,1,1587390425291,4,NA,This is an,1,ostrich,NA,NA,warmup1,NA,NA
2181,NA,emberizidae,NA,NA,33,warmup/ostrich2.png,canary,This is a,No,2,birds3,mary,NA,ostrich,yes,Your turn! Please label the pictures below.,NA,NA,NA,28,NA,Very interesting,warmup/canary2.png,graduated_college,NA,NA,English,male,NA,NA,1,1587390425291,5,NA,This is an,1,ostrich,NA,NA,warmup1,NA,NA
2181,NA,canary,NA,NA,33,warmup/ostrich2.png,canary,This is a,No,2,birds3,mary,NA,ostrich,yes,Your turn! Please label the pictures below.,NA,NA,NA,28,NA,Very interesting,warmup/canary2.png,graduated_college,NA,NA,English,male,NA,NA,1,1587390425291,6,NA,This is an,1,ostrich,NA,NA,warmup1,NA,NA
2181,NA,dandelion,NA,NA,33,warmup/sunflower2.png,dandelion,This is a,No,2,flowers,mary,NA,sunflower,yes,Your turn! Please label the pictures below.,NA,NA,NA,28,NA,Very interesting,warmup/dandelion2.png,graduated_college,NA,NA,English,male,NA,NA,2,1587390425291,1,NA,This is a,1,sunflower,NA,NA,warmup1,NA,NA
2181,NA,hummingbird,NA,NA,33,warmup/eagle2.png,hummingbird,This is a,No,2,birds1,mary,NA,eagle,yes,Your turn! Please label the pictures below.,NA,NA,NA,28,NA,Very interesting,warmup/hummingbird2.png,graduated_college,NA,NA,English,male,NA,NA,3,1587390425291,1,NA,This is an,1,eagle,NA,NA,warmup1,NA,NA
2181,NA,swordfish,NA,NA,33,warmup/goldfish2.png,swordfish,This is a,No,2,fish,mary,NA,goldfish,yes,Your turn! Please label the pictures below.,NA,NA,NA,28,NA,Very interesting,warmup/swordfish2.png,graduated_college,NA,NA,English,male,NA,NA,4,1587390425291,1,NA,This is a,1,goldfish,NA,NA,warmup1,NA,NA
2181,What do you think your friend is saying is it big relative to?,NA,images/sunflower.png,images/flower-parade-basic.png,33,NA,NA,NA,No,2,flowers,mary,NA,NA,yes,Your friend goes ahead of you. You see your friend in the distance:,NA,pred,sunflower,28,small,Very interesting,NA,graduated_college,big,NA,English,male,21461,You and your friend see the following:,1,1587390425291,NA,It is big relative to other,NA,1,NA,NA,congruent,custom_main_text1,big,Your friend says: <br/><b>That's a big sunflower.</b>
2181,What do you think your friend is saying is it big relative to?,NA,images/hummingbird.png,images/bird-parade-basic.png,33,NA,NA,NA,No,2,birds1,mary,NA,NA,yes,Your friend goes ahead of you. You see your friend in the distance:,NA,pred,hummingbird,28,small,Very interesting,NA,graduated_college,small,NA,English,male,7479,You and your friend see the following:,2,1587390425291,NA,It is big relative to other,NA,1,NA,NA,incongruent,custom_main_text1,big,Your friend says: <br/><b>That's a big hummingbird.</b>
2181,What do you think your friend is saying is it small relative to?,NA,images/goldfish.png,images/fish-parade-basic.png,33,NA,NA,NA,No,2,fish,mary,NA,NA,yes,Your friend goes ahead of you. You see your friend in the distance:,NA,subj,goldfish,28,That swordfish is large,Very interesting,NA,graduated_college,small,NA,English,male,28470,You and your friend see the following:,3,1587390425291,NA,It is small relative to other,NA,1,NA,NA,congruent,custom_main_text1,small,Your friend says: <br/><b>That goldfish is small.</b>
2181,What do you think your friend is saying is it small relative to?,NA,images/ostrich.png,images/bird-parade-basic3.png,33,NA,NA,NA,No,2,birds3,mary,NA,NA,yes,Your friend goes ahead of you. You see your friend in the distance:,NA,subj,ostrich,28,tall,Very interesting,NA,graduated_college,big,NA,English,male,8010,You and your friend see the following:,4,1587390425291,NA,It is small relative to other,NA,1,NA,NA,incongruent,custom_main_text1,small,Your friend says: <br/><b>That ostrich is small.</b>
2181,NA,chihuahua,NA,NA,33,warmup/doberman2.png,chihuahua,This is a,No,2,dogs1,mary,NA,doberman,yes,Your turn! Please label the pictures below.,NA,NA,NA,28,NA,Very interesting,warmup/chihuahua2.png,graduated_college,NA,NA,English,male,NA,NA,1,1587390425291,1,NA,This is a,1,doberman,NA,NA,warmup2,NA,NA
2181,NA,pug,NA,NA,33,warmup/great-dane2.png,pug,This is a,No,2,dogs2,mary,NA,great dane,yes,Your turn! Please label the pictures below.,NA,NA,NA,28,NA,Very interesting,warmup/pug2.png,graduated_college,NA,NA,English,male,NA,NA,2,1587390425291,1,NA,This is a,1,great dane,NA,NA,warmup2,NA,NA
2181,NA,redwood,NA,NA,33,warmup/bonsai2.png,redwood or sequoia (choose one),This is a,No,2,trees,mary,NA,bonsai,yes,Your turn! Please label the pictures below.,NA,NA,NA,28,NA,Very interesting,warmup/redwood2.png,graduated_college,NA,NA,English,male,NA,NA,3,1587390425291,1,NA,This is a,1,bonsai,NA,NA,warmup2,NA,NA
2181,NA,goose,NA,NA,33,warmup/sparrow2.png,goose,This is a,No,2,birds2,mary,NA,sparrow,yes,Your turn! Please label the pictures below.,NA,NA,NA,28,NA,Very interesting,warmup/goose2.png,graduated_college,NA,NA,English,male,NA,NA,4,1587390425291,1,NA,This is a,1,sparrow,NA,NA,warmup2,NA,NA
2181,What do you think your friend is saying is it big relative to?,NA,images/goose.png,images/bird-parade-basic2.png,33,NA,NA,NA,No,2,birds2,mary,NA,NA,yes,Your friend goes ahead of you. You see your friend in the distance:,NA,subj,goose,28,small,Very interesting,NA,graduated_college,big,NA,English,male,5574,You and your friend see the following:,1,1587390425291,NA,It is big relative to other,NA,1,NA,NA,congruent,custom_main_text2,big,Your friend says: <br/><b>That goose is big.</b>
2181,What do you think your friend is saying is it big relative to?,NA,images/bonsai.png,images/tree-parade-basic.png,33,NA,NA,NA,No,2,trees,mary,NA,NA,yes,Your friend goes ahead of you. You see your friend in the distance:,NA,pred,bonsai,28,small,Very interesting,NA,graduated_college,small,NA,English,male,5720,You and your friend see the following:,2,1587390425291,NA,It is big relative to other,NA,1,NA,NA,incongruent,custom_main_text2,big,Your friend says: <br/><b>That's a big bonsai.</b>
2181,What do you think your friend is saying is it big relative to?,NA,images/chihuahua.png,images/dog-parade-basic.png,33,NA,NA,NA,No,2,dogs1,mary,NA,NA,yes,Your friend goes ahead of you. You see your friend in the distance:,NA,subj,chihuahua,28,small,Very interesting,NA,graduated_college,small,NA,English,male,5080,You and your friend see the following:,3,1587390425291,NA,It is big relative to other,NA,1,NA,NA,incongruent,custom_main_text2,big,Your friend says: <br/><b>That chihuahua is big.</b>
2181,What do you think your friend is saying is it big relative to?,NA,images/great-dane.png,images/dog-parade-basic2.png,33,NA,NA,NA,No,2,dogs2,mary,NA,NA,yes,Your friend goes ahead of you. You see your friend in the distance:,NA,pred,Great Dane,28,small,Very interesting,NA,graduated_college,big,NA,English,male,5380,You and your friend see the following:,4,1587390425291,NA,It is big relative to other,NA,1,NA,NA,congruent,custom_main_text2,big,Your friend says: <br/><b>That's a big Great Dane.</b>
2180,<i>What do you think Speaker A meant? </i>,NA,NA,NA,33,NA,NA,NA,no,1,NA,linda,1,NA,yes,NA,"<b> Speaker A: ""The Empire State Building is tall.""</b>",NA,NA,69,buildings,It's so easy i'm thinking there's a trick in the questions lol.,NA,some_college,NA,comp_class_warmup,english,female,NA,In the main trials you will be asked to rephrase something a person said. The utterance will contain a word that is <i>relative</i> and your task is to figure out what it is relative to. <br /> <br /> For example: <br />,1,1587390096852,1,The Empire State Building is tall relative to other,NA,1,NA,"buildings, skyscrapers, houses, constructions (choose one)",NA,comp_class_warmup,NA,NA
2180,NA,goose,NA,NA,33,warmup/sparrow2.png,goose,This is a,no,1,birds2,linda,NA,sparrow,yes,Your turn! Please label the pictures below.,NA,NA,NA,69,NA,It's so easy i'm thinking there's a trick in the questions lol.,warmup/goose2.png,some_college,NA,NA,english,female,NA,NA,1,1587390096852,1,NA,This is a,1,sparrow,NA,NA,warmup1,NA,NA
2180,NA,dandelion,NA,NA,33,warmup/sunflower2.png,dandelion,This is a,no,1,flowers,linda,NA,sunflower,yes,Your turn! Please label the pictures below.,NA,NA,NA,69,NA,It's so easy i'm thinking there's a trick in the questions lol.,warmup/dandelion2.png,some_college,NA,NA,english,female,NA,NA,2,1587390096852,1,NA,This is a,1,sunflower,NA,NA,warmup1,NA,NA
2180,NA,hummingbird,NA,NA,33,warmup/eagle2.png,hummingbird,This is a,no,1,birds1,linda,NA,eagle,yes,Your turn! Please label the pictures below.,NA,NA,NA,69,NA,It's so easy i'm thinking there's a trick in the questions lol.,warmup/hummingbird2.png,some_college,NA,NA,english,female,NA,NA,3,1587390096852,1,NA,This is an,1,eagle,NA,NA,warmup1,NA,NA
2180,NA,redwood,NA,NA,33,warmup/bonsai2.png,redwood or sequoia (choose one),This is a,no,1,trees,linda,NA,bonsai,yes,Your turn! Please label the pictures below.,NA,NA,NA,69,NA,It's so easy i'm thinking there's a trick in the questions lol.,warmup/redwood2.png,some_college,NA,NA,english,female,NA,NA,4,1587390096852,1,NA,This is a,1,bonsai,NA,NA,warmup1,NA,NA
2180,What do you think your friend is saying is it small relative to?,NA,images/hummingbird.png,images/bird-parade-basic.png,33,NA,NA,NA,no,1,birds1,linda,NA,NA,yes,Your friend goes ahead of you. You see your friend in the distance:,NA,subj,hummingbird,69,birds,It's so easy i'm thinking there's a trick in the questions lol.,NA,some_college,small,NA,english,female,7923,You and your friend see the following:,1,1587390096852,NA,It is small relative to other,NA,1,NA,NA,congruent,custom_main_text1,small,Your friend says: <br/><b>That hummingbird is small.</b>
2180,What do you think your friend is saying is it big relative to?,NA,images/sparrow.png,images/bird-parade-basic2.png,33,NA,NA,NA,no,1,birds2,linda,NA,NA,yes,Your friend goes ahead of you. You see your friend in the distance:,NA,pred,sparrow,69,sparrows,It's so easy i'm thinking there's a trick in the questions lol.,NA,some_college,small,NA,english,female,9641,You and your friend see the following:,2,1587390096852,NA,It is big relative to other,NA,1,NA,NA,incongruent,custom_main_text1,big,Your friend says: <br/><b>That's a big sparrow.</b>
2180,What do you think your friend is saying is it small relative to?,NA,images/redwood.png,images/tree-parade-basic.png,33,NA,NA,NA,no,1,trees,linda,NA,NA,yes,Your friend goes ahead of you. You see your friend in the distance:,NA,subj,redwood,69,redwoods,It's so easy i'm thinking there's a trick in the questions lol.,NA,some_college,big,NA,english,female,23563,You and your friend see the following:,3,1587390096852,NA,It is small relative to other,NA,1,NA,NA,incongruent,custom_main_text1,small,Your friend says: <br/><b>That redwood is small.</b>
2180,What do you think your friend is saying is it small relative to?,NA,images/dandelion.png,images/flower-parade-basic.png,33,NA,NA,NA,no,1,flowers,linda,NA,NA,yes,Your friend goes ahead of you. You see your friend in the distance:,NA,pred,dandelion,69,dandelions,It's so easy i'm thinking there's a trick in the questions lol.,NA,some_college,small,NA,english,female,9154,You and your friend see the following:,4,1587390096852,NA,It is small relative to other,NA,1,NA,NA,congruent,custom_main_text1,small,Your friend says: <br/><b>That's a small dandelion.</b>
2180,NA,chihuahua,NA,NA,33,warmup/doberman2.png,chihuahua,This is a,no,1,dogs1,linda,NA,doberman,yes,Your turn! Please label the pictures below.,NA,NA,NA,69,NA,It's so easy i'm thinking there's a trick in the questions lol.,warmup/chihuahua2.png,some_college,NA,NA,english,female,NA,NA,1,1587390096852,1,NA,This is a,1,doberman,NA,NA,warmup2,NA,NA
2180,NA,pug,NA,NA,33,warmup/great-dane2.png,pug,This is a,no,1,dogs2,linda,NA,great dane,yes,Your turn! Please label the pictures below.,NA,NA,NA,69,NA,It's so easy i'm thinking there's a trick in the questions lol.,warmup/pug2.png,some_college,NA,NA,english,female,NA,NA,2,1587390096852,1,NA,This is a,1,great dane,NA,NA,warmup2,NA,NA
2180,NA,swordfish,NA,NA,33,warmup/goldfish2.png,swordfish,This is a,no,1,fish,linda,NA,goldfish,yes,Your turn! Please label the pictures below.,NA,NA,NA,69,NA,It's so easy i'm thinking there's a trick in the questions lol.,warmup/swordfish2.png,some_college,NA,NA,english,female,NA,NA,3,1587390096852,1,NA,This is a,1,goldfish,NA,NA,warmup2,NA,NA
2180,NA,canary,NA,NA,33,warmup/ostrich2.png,canary,This is a,no,1,birds3,linda,NA,ostrich,yes,Your turn! Please label the pictures below.,NA,NA,NA,69,NA,It's so easy i'm thinking there's a trick in the questions lol.,warmup/canary2.png,some_college,NA,NA,english,female,NA,NA,4,1587390096852,1,NA,This is an,1,ostrich,NA,NA,warmup2,NA,NA
2180,What do you think your friend is saying is it big relative to?,NA,images/ostrich.png,images/bird-parade-basic3.png,33,NA,NA,NA,no,1,birds3,linda,NA,NA,yes,Your friend goes ahead of you. You see your friend in the distance:,NA,subj,ostrich,69,ostriches,It's so easy i'm thinking there's a trick in the questions lol.,NA,some_college,big,NA,english,female,11251,You and your friend see the following:,1,1587390096852,NA,It is big relative to other,NA,1,NA,NA,congruent,custom_main_text2,big,Your friend says: <br/><b>That ostrich is big.</b>
2180,What do you think your friend is saying is it small relative to?,NA,images/pug.png,images/dog-parade-basic2.png,33,NA,NA,NA,no,1,dogs2,linda,NA,NA,yes,Your friend goes ahead of you. You see your friend in the distance:,NA,pred,pug,69,pugs,It's so easy i'm thinking there's a trick in the questions lol.,NA,some_college,small,NA,english,female,4631,You and your friend see the following:,2,1587390096852,NA,It is small relative to other,NA,1,NA,NA,congruent,custom_main_text2,small,Your friend says: <br/><b>That's a small pug.</b>
2180,What do you think your friend is saying is it small relative to?,NA,images/swordfish.png,images/fish-parade-basic.png,33,NA,NA,NA,no,1,fish,linda,NA,NA,yes,Your friend goes ahead of you. You see your friend in the distance:,NA,pred,swordfish,69,swordfish,It's so easy i'm thinking there's a trick in the questions lol.,NA,some_college,big,NA,english,female,6530,You and your friend see the following:,3,1587390096852,NA,It is small relative to other,NA,1,NA,NA,incongruent,custom_main_text2,small,Your friend says: <br/><b>That's a small swordfish.</b>
2180,What do you think your friend is saying is it small relative to?,NA,images/doberman.png,images/dog-parade-basic.png,33,NA,NA,NA,no,1,dogs1,linda,NA,NA,yes,Your friend goes ahead of you. You see your friend in the distance:,NA,subj,doberman,69,dobermans,It's so easy i'm thinking there's a trick in the questions lol.,NA,some_college,big,NA,english,female,5738,You and your friend see the following:,4,1587390096852,NA,It is small relative to other,NA,1,NA,NA,incongruent,custom_main_text2,small,Your friend says: <br/><b>That doberman is small.</b>
2179,<i>What do you think Speaker A meant? </i>,NA,NA,NA,33,NA,NA,NA,NA,1,NA,jessica,1,NA,yes,NA,"<b> Speaker A: ""The Empire State Building is tall.""</b>",NA,NA,57,buildins,NA,NA,graduated_college,NA,comp_class_warmup,english,female,NA,In the main trials you will be asked to rephrase something a person said. The utterance will contain a word that is <i>relative</i> and your task is to figure out what it is relative to. <br /> <br /> For example: <br />,1,1587390805800,1,The Empire State Building is tall relative to other,NA,1.25,NA,"buildings, skyscrapers, houses, constructions (choose one)",NA,comp_class_warmup,NA,NA
2179,<i>What do you think Speaker A meant? </i>,NA,NA,NA,33,NA,NA,NA,NA,1,NA,jessica,1,NA,yes,NA,"<b> Speaker A: ""The Empire State Building is tall.""</b>",NA,NA,57,buildings,NA,NA,graduated_college,NA,comp_class_warmup,english,female,NA,In the main trials you will be asked to rephrase something a person said. The utterance will contain a word that is <i>relative</i> and your task is to figure out what it is relative to. <br /> <br /> For example: <br />,1,1587390805800,2,The Empire State Building is tall relative to other,NA,1.25,NA,"buildings, skyscrapers, houses, constructions (choose one)",NA,comp_class_warmup,NA,NA
2179,NA,canary,NA,NA,33,warmup/ostrich2.png,canary,This is a,NA,1,birds3,jessica,NA,ostrich,yes,Your turn! Please label the pictures below.,NA,NA,NA,57,NA,NA,warmup/canary2.png,graduated_college,NA,NA,english,female,NA,NA,1,1587390805800,1,NA,This is an,1.25,ostrich,NA,NA,warmup1,NA,NA
2179,NA,chihuahu,NA,NA,33,warmup/doberman2.png,chihuahua,This is a,NA,1,dogs1,jessica,NA,doberman,yes,Your turn! Please label the pictures below.,NA,NA,NA,57,NA,NA,warmup/chihuahua2.png,graduated_college,NA,NA,english,female,NA,NA,2,1587390805800,1,NA,This is a,1.25,doberman,NA,NA,warmup1,NA,NA
2179,NA,chihuahua,NA,NA,33,warmup/doberman2.png,chihuahua,This is a,NA,1,dogs1,jessica,NA,doberman,yes,Your turn! Please label the pictures below.,NA,NA,NA,57,NA,NA,warmup/chihuahua2.png,graduated_college,NA,NA,english,female,NA,NA,2,1587390805800,2,NA,This is a,1.25,doberman\n\ndoberman,NA,NA,warmup1,NA,NA
2179,NA,chihuahua,NA,NA,33,warmup/doberman2.png,chihuahua,This is a,NA,1,dogs1,jessica,NA,doberman,yes,Your turn! Please label the pictures below.,NA,NA,NA,57,NA,NA,warmup/chihuahua2.png,graduated_college,NA,NA,english,female,NA,NA,2,1587390805800,3,NA,This is a,1.25,doberman,NA,NA,warmup1,NA,NA
2179,NA,swordfish,NA,NA,33,warmup/goldfish2.png,swordfish,This is a,NA,1,fish,jessica,NA,goldfish,yes,Your turn! Please label the pictures below.,NA,NA,NA,57,NA,NA,warmup/swordfish2.png,graduated_college,NA,NA,english,female,NA,NA,3,1587390805800,1,NA,This is a,1.25,goldfish,NA,NA,warmup1,NA,NA
2179,NA,dandelion,NA,NA,33,warmup/sunflower2.png,dandelion,This is a,NA,1,flowers,jessica,NA,sunflower,yes,Your turn! Please label the pictures below.,NA,NA,NA,57,NA,NA,warmup/dandelion2.png,graduated_college,NA,NA,english,female,NA,NA,4,1587390805800,1,NA,This is a,1.25,sunflower,NA,NA,warmup1,NA,NA
2179,What do you think your friend is saying is it big relative to?,NA,images/doberman.png,images/dog-parade-basic.png,33,NA,NA,NA,NA,1,dogs1,jessica,NA,NA,yes,Your friend goes ahead of you. You see your friend in the distance:,NA,pred,doberman,57,dogs,NA,NA,graduated_college,big,NA,english,female,13712,You and your friend see the following:,1,1587390805800,NA,It is big relative to other,NA,1.25,NA,NA,congruent,custom_main_text1,big,Your friend says: <br/><b>That's a big doberman.</b>
2179,What do you think your friend is saying is it small relative to?,NA,images/dandelion.png,images/flower-parade-basic.png,33,NA,NA,NA,NA,1,flowers,jessica,NA,NA,yes,Your friend goes ahead of you. You see your friend in the distance:,NA,subj,dandelion,57,flowers,NA,NA,graduated_college,small,NA,english,female,11081,You and your friend see the following:,2,1587390805800,NA,It is small relative to other,NA,1.25,NA,NA,congruent,custom_main_text1,small,Your friend says: <br/><b>That dandelion is small.</b>
2179,What do you think your friend is saying is it small relative to?,NA,images/swordfish.png,images/fish-parade-basic.png,33,NA,NA,NA,NA,1,fish,jessica,NA,NA,yes,Your friend goes ahead of you. You see your friend in the distance:,NA,pred,swordfish,57,swordfish,NA,NA,graduated_college,big,NA,english,female,7495,You and your friend see the following:,3,1587390805800,NA,It is small relative to other,NA,1.25,NA,NA,incongruent,custom_main_text1,small,Your friend says: <br/><b>That's a small swordfish.</b>
2179,What do you think your friend is saying is it small relative to?,NA,images/canary.png,images/bird-parade-basic3.png,33,NA,NA,NA,NA,1,birds3,jessica,NA,NA,yes,Your friend goes ahead of you. You see your friend in the distance:,NA,pred,canary,57,birds,NA,NA,graduated_college,small,NA,english,female,7618,You and your friend see the following:,4,1587390805800,NA,It is small relative to other,NA,1.25,NA,NA,congruent,custom_main_text1,small,Your friend says: <br/><b>That's a small canary.</b>
2179,NA,goose,NA,NA,33,warmup/sparrow2.png,goose,This is a,NA,1,birds2,jessica,NA,sparrow,yes,Your turn! Please label the pictures below.,NA,NA,NA,57,NA,NA,warmup/goose2.png,graduated_college,NA,NA,english,female,NA,NA,1,1587390805800,1,NA,This is a,1.25,sparrow,NA,NA,warmup2,NA,NA
2179,NA,redwood,NA,NA,33,warmup/bonsai2.png,redwood or sequoia (choose one),This is a,NA,1,trees,jessica,NA,bonsai,yes,Your turn! Please label the pictures below.,NA,NA,NA,57,NA,NA,warmup/redwood2.png,graduated_college,NA,NA,english,female,NA,NA,2,1587390805800,1,NA,This is a,1.25,bonsai,NA,NA,warmup2,NA,NA
2179,NA,hummingbird,NA,NA,33,warmup/eagle2.png,hummingbird,This is a,NA,1,birds1,jessica,NA,eagle,yes,Your turn! Please label the pictures below.,NA,NA,NA,57,NA,NA,warmup/hummingbird2.png,graduated_college,NA,NA,english,female,NA,NA,3,1587390805800,1,NA,This is an,1.25,eagle,NA,NA,warmup2,NA,NA
2179,NA,pug,NA,NA,33,warmup/great-dane2.png,pug,This is a,NA,1,dogs2,jessica,NA,great dane,yes,Your turn! Please label the pictures below.,NA,NA,NA,57,NA,NA,warmup/pug2.png,graduated_college,NA,NA,english,female,NA,NA,4,1587390805800,1,NA,This is a,1.25,great dand,NA,NA,warmup2,NA,NA
2179,NA,pug,NA,NA,33,warmup/great-dane2.png,pug,This is a,NA,1,dogs2,jessica,NA,great dane,yes,Your turn! Please label the pictures below.,NA,NA,NA,57,NA,NA,warmup/pug2.png,graduated_college,NA,NA,english,female,NA,NA,4,1587390805800,2,NA,This is a,1.25,great dane,NA,NA,warmup2,NA,NA
2179,What do you think your friend is saying is it big relative to?,NA,images/hummingbird.png,images/bird-parade-basic.png,33,NA,NA,NA,NA,1,birds1,jessica,NA,NA,yes,Your friend goes ahead of you. You see your friend in the distance:,NA,subj,hummingbird,57,hummingbirds,NA,NA,graduated_college,small,NA,english,female,16113,You and your friend see the following:,1,1587390805800,NA,It is big relative to other,NA,1.25,NA,NA,incongruent,custom_main_text2,big,Your friend says: <br/><b>That hummingbird is big.</b>
2179,What do you think your friend is saying is it small relative to?,NA,images/great-dane.png,images/dog-parade-basic2.png,33,NA,NA,NA,NA,1,dogs2,jessica,NA,NA,yes,Your friend goes ahead of you. You see your friend in the distance:,NA,subj,Great Dane,57,great danes,NA,NA,graduated_college,big,NA,english,female,8952,You and your friend see the following:,2,1587390805800,NA,It is small relative to other,NA,1.25,NA,NA,incongruent,custom_main_text2,small,Your friend says: <br/><b>That Great Dane is small.</b>
2179,What do you think your friend is saying is it small relative to?,NA,images/goose.png,images/bird-parade-basic2.png,33,NA,NA,NA,NA,1,birds2,jessica,NA,NA,yes,Your friend goes ahead of you. You see your friend in the distance:,NA,pred,goose,57,geese,NA,NA,graduated_college,big,NA,english,female,13480,You and your friend see the following:,3,1587390805800,NA,It is small relative to other,NA,1.25,NA,NA,incongruent,custom_main_text2,small,Your friend says: <br/><b>That's a small goose.</b>
2179,What do you think your friend is saying is it small relative to?,NA,images/bonsai.png,images/tree-parade-basic.png,33,NA,NA,NA,NA,1,trees,jessica,NA,NA,yes,Your friend goes ahead of you. You see your friend in the distance:,NA,subj,bonsai,57,bonsai,NA,NA,graduated_college,small,NA,english,female,10616,You and your friend see the following:,4,1587390805800,NA,It is small relative to other,NA,1.25,NA,NA,congruent,custom_main_text2,small,Your friend says: <br/><b>That bonsai is small.</b>
2178,<i>What do you think Speaker A meant? </i>,NA,NA,NA,33,NA,NA,NA,no,1,NA,linda,1,NA,yes,NA,"<b> Speaker A: ""The Empire State Building is tall.""</b>",NA,NA,26,buildings,NA,NA,graduated_high_school,NA,comp_class_warmup,english,female,NA,In the main trials you will be asked to rephrase something a person said. The utterance will contain a word that is <i>relative</i> and your task is to figure out what it is relative to. <br /> <br /> For example: <br />,1,1587390280856,1,The Empire State Building is tall relative to other,NA,2,NA,"buildings, skyscrapers, houses, constructions (choose one)",NA,comp_class_warmup,NA,NA
2178,NA,goose,NA,NA,33,warmup/sparrow2.png,goose,This is a,no,1,birds2,linda,NA,sparrow,yes,Your turn! Please label the pictures below.,NA,NA,NA,26,NA,NA,warmup/goose2.png,graduated_high_school,NA,NA,english,female,NA,NA,1,1587390280856,1,NA,This is a,2,bird,NA,NA,warmup1,NA,NA
2178,NA,goose,NA,NA,33,warmup/sparrow2.png,goose,This is a,no,1,birds2,linda,NA,sparrow,yes,Your turn! Please label the pictures below.,NA,NA,NA,26,NA,NA,warmup/goose2.png,graduated_high_school,NA,NA,english,female,NA,NA,1,1587390280856,2,NA,This is a,2,sparrow,NA,NA,warmup1,NA,NA
2178,NA,pug,NA,NA,33,warmup/great-dane2.png,pug,This is a,no,1,dogs2,linda,NA,great dane,yes,Your turn! Please label the pictures below.,NA,NA,NA,26,NA,NA,warmup/pug2.png,graduated_high_school,NA,NA,english,female,NA,NA,2,1587390280856,1,NA,This is a,2,great dane,NA,NA,warmup1,NA,NA
2178,NA,swordfish,NA,NA,33,warmup/goldfish2.png,swordfish,This is a,no,1,fish,linda,NA,goldfish,yes,Your turn! Please label the pictures below.,NA,NA,NA,26,NA,NA,warmup/swordfish2.png,graduated_high_school,NA,NA,english,female,NA,NA,3,1587390280856,1,NA,This is a,2,goldfish,NA,NA,warmup1,NA,NA
2178,NA,dandelion,NA,NA,33,warmup/sunflower2.png,dandelion,This is a,no,1,flowers,linda,NA,sunflower,yes,Your turn! Please label the pictures below.,NA,NA,NA,26,NA,NA,warmup/dandelion2.png,graduated_high_school,NA,NA,english,female,NA,NA,4,1587390280856,1,NA,This is a,2,sunflower,NA,NA,warmup1,NA,NA
2178,What do you think your friend is saying is it small relative to?,NA,images/dandelion.png,images/flower-parade-basic.png,33,NA,NA,NA,no,1,flowers,linda,NA,NA,yes,Your friend goes ahead of you. You see your friend in the distance:,NA,pred,dandelion,26,dandelions,NA,NA,graduated_high_school,small,NA,english,female,17784,You and your friend see the following:,1,1587390280856,NA,It is small relative to other,NA,2,NA,NA,congruent,custom_main_text1,small,Your friend says: <br/><b>That's a small dandelion.</b>
2178,What do you think your friend is saying is it big relative to?,NA,images/swordfish.png,images/fish-parade-basic.png,33,NA,NA,NA,no,1,fish,linda,NA,NA,yes,Your friend goes ahead of you. You see your friend in the distance:,NA,subj,swordfish,26,swordfish,NA,NA,graduated_high_school,big,NA,english,female,15429,You and your friend see the following:,2,1587390280856,NA,It is big relative to other,NA,2,NA,NA,congruent,custom_main_text1,big,Your friend says: <br/><b>That swordfish is big.</b>
2178,What do you think your friend is saying is it big relative to?,NA,images/sparrow.png,images/bird-parade-basic2.png,33,NA,NA,NA,no,1,birds2,linda,NA,NA,yes,Your friend goes ahead of you. You see your friend in the distance:,NA,subj,sparrow,26,birds,NA,NA,graduated_high_school,small,NA,english,female,13675,You and your friend see the following:,3,1587390280856,NA,It is big relative to other,NA,2,NA,NA,incongruent,custom_main_text1,big,Your friend says: <br/><b>That sparrow is big.</b>
2178,What do you think your friend is saying is it small relative to?,NA,images/great-dane.png,images/dog-parade-basic2.png,33,NA,NA,NA,no,1,dogs2,linda,NA,NA,yes,Your friend goes ahead of you. You see your friend in the distance:,NA,pred,Great Dane,26,dogs,NA,NA,graduated_high_school,big,NA,english,female,6524,You and your friend see the following:,4,1587390280856,NA,It is small relative to other,NA,2,NA,NA,incongruent,custom_main_text1,small,Your friend says: <br/><b>That's a small Great Dane.</b>
2178,NA,canary,NA,NA,33,warmup/ostrich2.png,canary,This is a,no,1,birds3,linda,NA,ostrich,yes,Your turn! Please label the pictures below.,NA,NA,NA,26,NA,NA,warmup/canary2.png,graduated_high_school,NA,NA,english,female,NA,NA,1,1587390280856,1,NA,This is an,2,ostrich,NA,NA,warmup2,NA,NA
2178,NA,redwood,NA,NA,33,warmup/bonsai2.png,redwood or sequoia (choose one),This is a,no,1,trees,linda,NA,bonsai,yes,Your turn! Please label the pictures below.,NA,NA,NA,26,NA,NA,warmup/redwood2.png,graduated_high_school,NA,NA,english,female,NA,NA,2,1587390280856,1,NA,This is a,2,bansai,NA,NA,warmup2,NA,NA
2178,NA,redwood,NA,NA,33,warmup/bonsai2.png,redwood or sequoia (choose one),This is a,no,1,trees,linda,NA,bonsai,yes,Your turn! Please label the pictures below.,NA,NA,NA,26,NA,NA,warmup/redwood2.png,graduated_high_school,NA,NA,english,female,NA,NA,2,1587390280856,2,NA,This is a,2,bonsai,NA,NA,warmup2,NA,NA
2178,NA,hummingbird,NA,NA,33,warmup/eagle2.png,hummingbird,This is a,no,1,birds1,linda,NA,eagle,yes,Your turn! Please label the pictures below.,NA,NA,NA,26,NA,NA,warmup/hummingbird2.png,graduated_high_school,NA,NA,english,female,NA,NA,3,1587390280856,1,NA,This is an,2,eagle,NA,NA,warmup2,NA,NA
2178,NA,chihuaha,NA,NA,33,warmup/doberman2.png,chihuahua,This is a,no,1,dogs1,linda,NA,doberman,yes,Your turn! Please label the pictures below.,NA,NA,NA,26,NA,NA,warmup/chihuahua2.png,graduated_high_school,NA,NA,english,female,NA,NA,4,1587390280856,1,NA,This is a,2,doberman,NA,NA,warmup2,NA,NA
2178,NA,chihuahua,NA,NA,33,warmup/doberman2.png,chihuahua,This is a,no,1,dogs1,linda,NA,doberman,yes,Your turn! Please label the pictures below.,NA,NA,NA,26,NA,NA,warmup/chihuahua2.png,graduated_high_school,NA,NA,english,female,NA,NA,4,1587390280856,2,NA,This is a,2,doberman,NA,NA,warmup2,NA,NA
2178,What do you think your friend is saying is it small relative to?,NA,images/hummingbird.png,images/bird-parade-basic.png,33,NA,NA,NA,no,1,birds1,linda,NA,NA,yes,Your friend goes ahead of you. You see your friend in the distance:,NA,subj,hummingbird,26,birds,NA,NA,graduated_high_school,small,NA,english,female,8045,You and your friend see the following:,1,1587390280856,NA,It is small relative to other,NA,2,NA,NA,congruent,custom_main_text2,small,Your friend says: <br/><b>That hummingbird is small.</b>
2178,What do you think your friend is saying is it big relative to?,NA,images/ostrich.png,images/bird-parade-basic3.png,33,NA,NA,NA,no,1,birds3,linda,NA,NA,yes,Your friend goes ahead of you. You see your friend in the distance:,NA,pred,ostrich,26,birds,NA,NA,graduated_high_school,big,NA,english,female,6467,You and your friend see the following:,2,1587390280856,NA,It is big relative to other,NA,2,NA,NA,congruent,custom_main_text2,big,Your friend says: <br/><b>That's a big ostrich.</b>
2178,What do you think your friend is saying is it small relative to?,NA,images/redwood.png,images/tree-parade-basic.png,33,NA,NA,NA,no,1,trees,linda,NA,NA,yes,Your friend goes ahead of you. You see your friend in the distance:,NA,pred,redwood,26,trees,NA,NA,graduated_high_school,big,NA,english,female,6292,You and your friend see the following:,3,1587390280856,NA,It is small relative to other,NA,2,NA,NA,incongruent,custom_main_text2,small,Your friend says: <br/><b>That's a small redwood.</b>
2178,What do you think your friend is saying is it big relative to?,NA,images/chihuahua.png,images/dog-parade-basic.png,33,NA,NA,NA,no,1,dogs1,linda,NA,NA,yes,Your friend goes ahead of you. You see your friend in the distance:,NA,subj,chihuahua,26,dogs,NA,NA,graduated_high_school,small,NA,english,female,10362,You and your friend see the following:,4,1587390280856,NA,It is big relative to other,NA,2,NA,NA,incongruent,custom_main_text2,big,Your friend says: <br/><b>That chihuahua is big.</b>
2177,<i>What do you think Speaker A meant? </i>,NA,NA,NA,33,NA,NA,NA,no,1,NA,mary,1,NA,NA,NA,"<b> Speaker A: ""The Empire State Building is tall.""</b>",NA,NA,NA,buildings,NA,NA,some_college,NA,comp_class_warmup,english,male,NA,In the main trials you will be asked to rephrase something a person said. The utterance will contain a word that is <i>relative</i> and your task is to figure out what it is relative to. <br /> <br /> For example: <br />,1,1587390453746,1,The Empire State Building is tall relative to other,NA,1.5,NA,"buildings, skyscrapers, houses, constructions (choose one)",NA,comp_class_warmup,NA,NA
2177,NA,goose,NA,NA,33,warmup/sparrow2.png,goose,This is a,no,1,birds2,mary,NA,sparrow,NA,Your turn! Please label the pictures below.,NA,NA,NA,NA,NA,NA,warmup/goose2.png,some_college,NA,NA,english,male,NA,NA,1,1587390453746,1,NA,This is a,1.5,sparrow,NA,NA,warmup1,NA,NA
2177,NA,chihuahua,NA,NA,33,warmup/doberman2.png,chihuahua,This is a,no,1,dogs1,mary,NA,doberman,NA,Your turn! Please label the pictures below.,NA,NA,NA,NA,NA,NA,warmup/chihuahua2.png,some_college,NA,NA,english,male,NA,NA,2,1587390453746,1,NA,This is a,1.5,doberman,NA,NA,warmup1,NA,NA
2177,NA,canary,NA,NA,33,warmup/ostrich2.png,canary,This is a,no,1,birds3,mary,NA,ostrich,NA,Your turn! Please label the pictures below.,NA,NA,NA,NA,NA,NA,warmup/canary2.png,some_college,NA,NA,english,male,NA,NA,3,1587390453746,1,NA,This is an,1.5,ostrich,NA,NA,warmup1,NA,NA
