submission_id,question,response1,target_picture,context_picture,experiment_id,picture2,correct1,question1,problems,enjoyment,item,botresponse,trials,correct2,understand,text,sentence,syntax,target,age,response,comments,picture1,response3,education,name,languages,sex,RT,correct3,context,trial_number,startTime,attempts,paraphrase,question3,fairprice,reference,question2,response2,correct,trial_name,adj,utterance
2063,<i>What do you think Speaker A meant? </i>,NA,NA,NA,32,NA,NA,NA,no,1,NA,sarah,1,NA,yes,NA,"<b> Speaker A: ""The Empire State Building is tall.""</b>",NA,NA,29,buildings,NA,NA,NA,some_college,comp_class_warmup,english,male,NA,NA,In the main trials you will be asked to rephrase something a person said. The utterance will contain a word that is <i>relative</i> and your task is to figure out what it is relative to. <br /> <br /> For example: <br />,1,1585590886597,1,The Empire State Building is tall relative to other,NA,2,NA,NA,NA,"buildings, skyscrapers, houses, constructions (choose one)",comp_class_warmup,NA,NA
2063,NA,puppy,NA,NA,32,warmup/great-dane.jpg,pug,This is a,no,1,dogs2,sarah,NA,great dane,yes,Please label the pictures below.,NA,NA,NA,29,NA,NA,warmup/pug.jpg,animals,some_college,NA,english,male,NA,dogs,NA,1,1585590886597,1,NA,This is a,2,NA,These are both,dog,NA,warmup1,NA,NA
2063,NA,pug,NA,NA,32,warmup/great-dane.jpg,pug,This is a,no,1,dogs2,sarah,NA,great dane,yes,Please label the pictures below.,NA,NA,NA,29,NA,NA,warmup/pug.jpg,dogs,some_college,NA,english,male,NA,dogs,NA,1,1585590886597,2,NA,This is a,2,NA,These are both,dane,NA,warmup1,NA,NA
2063,NA,pug,NA,NA,32,warmup/great-dane.jpg,pug,This is a,no,1,dogs2,sarah,NA,great dane,yes,Please label the pictures below.,NA,NA,NA,29,NA,NA,warmup/pug.jpg,dogs,some_college,NA,english,male,NA,dogs,NA,1,1585590886597,3,NA,This is a,2,NA,These are both,dane,NA,warmup1,NA,NA
2063,NA,pug,NA,NA,32,warmup/great-dane.jpg,pug,This is a,no,1,dogs2,sarah,NA,great dane,yes,Please label the pictures below.,NA,NA,NA,29,NA,NA,warmup/pug.jpg,dogs,some_college,NA,english,male,NA,dogs,NA,1,1585590886597,4,NA,This is a,2,NA,These are both,dane,NA,warmup1,NA,NA
2063,NA,pug,NA,NA,32,warmup/great-dane.jpg,pug,This is a,no,1,dogs2,sarah,NA,great dane,yes,Please label the pictures below.,NA,NA,NA,29,NA,NA,warmup/pug.jpg,dogs,some_college,NA,english,male,NA,dogs,NA,1,1585590886597,5,NA,This is a,2,NA,These are both,dane,NA,warmup1,NA,NA
2063,NA,pug,NA,NA,32,warmup/great-dane.jpg,pug,This is a,no,1,dogs2,sarah,NA,great dane,yes,Please label the pictures below.,NA,NA,NA,29,NA,NA,warmup/pug.jpg,dogs,some_college,NA,english,male,NA,dogs,NA,1,1585590886597,6,NA,This is a,2,NA,These are both,dane,NA,warmup1,NA,NA
2063,NA,pug,NA,NA,32,warmup/great-dane.jpg,pug,This is a,no,1,dogs2,sarah,NA,great dane,yes,Please label the pictures below.,NA,NA,NA,29,NA,NA,warmup/pug.jpg,dogs,some_college,NA,english,male,NA,dogs,NA,1,1585590886597,7,NA,This is a,2,NA,These are both,great dane,NA,warmup1,NA,NA
2063,NA,daisy,NA,NA,32,warmup/sunflower.png,dandelion,This is a,no,1,flowers,sarah,NA,sunflower,yes,Please label the pictures below.,NA,NA,NA,29,NA,NA,warmup/dandelion.jpg,flowers,some_college,NA,english,male,NA,flowers,NA,2,1585590886597,1,NA,This is a,2,NA,These are both,sunflower,NA,warmup1,NA,NA
2063,NA,dandelion,NA,NA,32,warmup/sunflower.png,dandelion,This is a,no,1,flowers,sarah,NA,sunflower,yes,Please label the pictures below.,NA,NA,NA,29,NA,NA,warmup/dandelion.jpg,flowers,some_college,NA,english,male,NA,flowers,NA,2,1585590886597,2,NA,This is a,2,NA,These are both,sunflower,NA,warmup1,NA,NA
2063,NA,hummingbird,NA,NA,32,warmup/eagle.jpg,hummingbird,This is a,no,1,birds,sarah,NA,eagle,yes,Please label the pictures below.,NA,NA,NA,29,NA,NA,warmup/colibri.jpg,birds,some_college,NA,english,male,NA,birds,NA,3,1585590886597,1,NA,This is an,2,NA,These are both,eagle,NA,warmup1,NA,NA
2063,What do you think is it small  relative to?,NA,images/hummingbird.png,images/bird-parade-basic.png,32,NA,NA,NA,no,1,birds,sarah,NA,NA,yes,Your friend goes ahead of you. You see your friend in the distance:,NA,subject,hummingbird,29,birds,NA,NA,NA,some_college,NA,english,male,19160,NA,You visit your friend who works at an animal shelter and you see the following:,1,1585590886597,NA,It is small  relative to other,NA,2,rescue,NA,NA,NA,custom_main_text1,small,Your friend says: <br/><b>That small hummingbird is a rescue.</b>
2063,What do you think is it big  relative to?,NA,images/great-dane.png,images/dog-parade-basic2.png,32,NA,NA,NA,no,1,dogs2,sarah,NA,NA,yes,Your friend goes ahead of you. You see your friend in the distance:,NA,predicate,great dane,29,dogs,NA,NA,NA,some_college,NA,english,male,7922,NA,You and your friend are at a pet show and you see the following:,2,1585590886597,NA,It is big  relative to other,NA,2,prize-winner,NA,NA,NA,custom_main_text1,big,Your friend says: <br/><b>That prize-winner is a big Great Dane.</b>
2063,What do you think is it small  relative to?,NA,images/dandelion.png,images/flower-parade-basic.png,32,NA,NA,NA,no,1,flowers,sarah,NA,NA,yes,Your friend goes ahead of you. You see your friend in the distance:,NA,predicate,dandelion,29,flowers,NA,NA,NA,some_college,NA,english,male,7057,NA,You and your friend are at their garden and you see the following:,3,1585590886597,NA,It is small  relative to other,NA,2,gift,NA,NA,NA,custom_main_text1,small,Your friend says: <br/><b>That gift is a small dandelion.</b>
2063,NA,vvv,NA,NA,32,warmup/bonsai.jpg,redwood or sequoia (choose one),This is a,no,1,trees,sarah,NA,bonsai,yes,Please label the pictures below.,NA,NA,NA,29,NA,NA,warmup/sequoia.png,trees,some_college,NA,english,male,NA,trees,NA,1,1585590886597,1,NA,This is a,2,NA,These are both,ffff,NA,warmup2,NA,NA
2063,NA,redwood,NA,NA,32,warmup/bonsai.jpg,redwood or sequoia (choose one),This is a,no,1,trees,sarah,NA,bonsai,yes,Please label the pictures below.,NA,NA,NA,29,NA,NA,warmup/sequoia.png,trees,some_college,NA,english,male,NA,trees,NA,1,1585590886597,2,NA,This is a,2,NA,These are both,bonsai,NA,warmup2,NA,NA
2063,NA,chijjj,NA,NA,32,warmup/doberman.png,chihuahua,This is a,no,1,dogs1,sarah,NA,doberman,yes,Please label the pictures below.,NA,NA,NA,29,NA,NA,warmup/chihuahua.jpg,dogs,some_college,NA,english,male,NA,dogs,NA,2,1585590886597,1,NA,This is a,2,NA,These are both,jjjjjjj,NA,warmup2,NA,NA
2063,NA,chihuahua,NA,NA,32,warmup/doberman.png,chihuahua,This is a,no,1,dogs1,sarah,NA,doberman,yes,Please label the pictures below.,NA,NA,NA,29,NA,NA,warmup/chihuahua.jpg,dogs,some_college,NA,english,male,NA,dogs,NA,2,1585590886597,2,NA,This is a,2,NA,These are both,doberman,NA,warmup2,NA,NA
2063,What do you think is it big relative to?,NA,images/doberman.png,images/dog-parade-basic.png,32,NA,NA,NA,no,1,dogs1,sarah,NA,NA,yes,Your friend goes ahead of you. You see your friend in the distance:,NA,subject,doberman,29,dogs,NA,NA,NA,some_college,NA,english,male,8240,NA,You and your friend are at an animal training ground and you see the following:,1,1585590886597,NA,It is big relative to other,NA,2,service animal,NA,NA,NA,custom_main_text2,big,Your friend says: <br/><b>That big doberman is a service animal.</b>
2063,What do you think is it small  relative to?,NA,images/bonsai_stick.png,images/tree-parade-basic.png,32,NA,NA,NA,no,1,trees,sarah,NA,NA,yes,Your friend goes ahead of you. You see your friend in the distance:,NA,subject,bonsai,29,trees,NA,NA,NA,some_college,NA,english,male,6040,NA,You and your friend walk to their cabin in a park for the first time. You want to memorize the path and you see the following:,2,1585590886597,NA,It is small  relative to other,NA,2,landmark,NA,NA,NA,custom_main_text2,small,Your friend says: <br/><b>That small bonsai is a landmark.</b>
2062,<i>What do you think Speaker A meant? </i>,NA,NA,NA,32,NA,NA,NA,No,1,NA,linda,1,NA,yes,NA,"<b> Speaker A: ""The Empire State Building is tall.""</b>",NA,NA,33,skyscrapers,Pretty straightforward experiment,NA,NA,some_college,comp_class_warmup,English,male,NA,NA,In the main trials you will be asked to rephrase something a person said. The utterance will contain a word that is <i>relative</i> and your task is to figure out what it is relative to. <br /> <br /> For example: <br />,1,1585584051644,1,The Empire State Building is tall relative to other,NA,1,NA,NA,NA,"buildings, skyscrapers, houses, constructions (choose one)",comp_class_warmup,NA,NA
2062,NA,sunflower,NA,NA,32,warmup/sunflower.png,dandelion,This is a,No,1,flowers,linda,NA,sunflower,yes,Please label the pictures below.,NA,NA,NA,33,NA,Pretty straightforward experiment,warmup/dandelion.jpg,sunflowers,some_college,NA,English,male,NA,flowers,NA,1,1585584051644,1,NA,This is a,1,NA,These are both,sunflower,NA,warmup1,NA,NA
2062,NA,dandelion,NA,NA,32,warmup/sunflower.png,dandelion,This is a,No,1,flowers,linda,NA,sunflower,yes,Please label the pictures below.,NA,NA,NA,33,NA,Pretty straightforward experiment,warmup/dandelion.jpg,flowers,some_college,NA,English,male,NA,flowers,NA,1,1585584051644,2,NA,This is a,1,NA,These are both,sunflower,NA,warmup1,NA,NA
2062,NA,chihuahua,NA,NA,32,warmup/doberman.png,chihuahua,This is a,No,1,dogs1,linda,NA,doberman,yes,Please label the pictures below.,NA,NA,NA,33,NA,Pretty straightforward experiment,warmup/chihuahua.jpg,dogs,some_college,NA,English,male,NA,dogs,NA,2,1585584051644,1,NA,This is a,1,NA,These are both,dashchund,NA,warmup1,NA,NA
2062,NA,chihuahua,NA,NA,32,warmup/doberman.png,chihuahua,This is a,No,1,dogs1,linda,NA,doberman,yes,Please label the pictures below.,NA,NA,NA,33,NA,Pretty straightforward experiment,warmup/chihuahua.jpg,dogs,some_college,NA,English,male,NA,dogs,NA,2,1585584051644,2,NA,This is a,1,NA,These are both,doberman,NA,warmup1,NA,NA
2062,NA,bulldog,NA,NA,32,warmup/great-dane.jpg,pug,This is a,No,1,dogs2,linda,NA,great dane,yes,Please label the pictures below.,NA,NA,NA,33,NA,Pretty straightforward experiment,warmup/pug.jpg,dogs,some_college,NA,English,male,NA,dogs,NA,3,1585584051644,1,NA,This is a,1,NA,These are both,pitbull,NA,warmup1,NA,NA
2062,NA,pug,NA,NA,32,warmup/great-dane.jpg,pug,This is a,No,1,dogs2,linda,NA,great dane,yes,Please label the pictures below.,NA,NA,NA,33,NA,Pretty straightforward experiment,warmup/pug.jpg,dogs,some_college,NA,English,male,NA,dogs,NA,3,1585584051644,2,NA,This is a,1,NA,These are both,great dane,NA,warmup1,NA,NA
2062,What do you think is it big  relative to?,NA,images/sunflower.png,images/flower-parade-basic.png,32,NA,NA,NA,No,1,flowers,linda,NA,NA,yes,Your friend goes ahead of you. You see your friend in the distance:,NA,predicate,sunflower,33,other flowers,Pretty straightforward experiment,NA,NA,some_college,NA,English,male,12350,NA,You and your friend are at their garden and you see the following:,1,1585584051644,NA,It is big  relative to other,NA,1,gift,NA,NA,NA,custom_main_text1,big,Your friend says: <br/><b>That gift is a big sunflower.</b>
2062,What do you think is it small relative to?,NA,images/chihuahua.png,images/dog-parade-basic.png,32,NA,NA,NA,No,1,dogs1,linda,NA,NA,yes,Your friend goes ahead of you. You see your friend in the distance:,NA,subject,chihuahua,33,other dogs,Pretty straightforward experiment,NA,NA,some_college,NA,English,male,7982,NA,You and your friend are at an animal training ground and you see the following:,2,1585584051644,NA,It is small relative to other,NA,1,service animal,NA,NA,NA,custom_main_text1,small,Your friend says: <br/><b>That small chihuahua is a service animal.</b>
2062,What do you think is it small  relative to?,NA,images/pug.png,images/dog-parade-basic2.png,32,NA,NA,NA,No,1,dogs2,linda,NA,NA,yes,Your friend goes ahead of you. You see your friend in the distance:,NA,subject,pug,33,dogs,Pretty straightforward experiment,NA,NA,some_college,NA,English,male,13917,NA,You and your friend are at a pet show and you see the following:,3,1585584051644,NA,It is small  relative to other,NA,1,prize-winner,NA,NA,NA,custom_main_text1,small,Your friend says: <br/><b>That small pug is a prize-winner.</b>
2062,NA,hummingbird,NA,NA,32,warmup/eagle.jpg,hummingbird,This is a,No,1,birds,linda,NA,eagle,yes,Please label the pictures below.,NA,NA,NA,33,NA,Pretty straightforward experiment,warmup/colibri.jpg,birds,some_college,NA,English,male,NA,birds,NA,1,1585584051644,1,NA,This is an,1,NA,These are both,bald eagle,NA,warmup2,NA,NA
2062,NA,hummingbird,NA,NA,32,warmup/eagle.jpg,hummingbird,This is a,No,1,birds,linda,NA,eagle,yes,Please label the pictures below.,NA,NA,NA,33,NA,Pretty straightforward experiment,warmup/colibri.jpg,birds,some_college,NA,English,male,NA,birds,NA,1,1585584051644,2,NA,This is an,1,NA,These are both,eagle,NA,warmup2,NA,NA
2062,NA,sequoia,NA,NA,32,warmup/bonsai.jpg,redwood or sequoia (choose one),This is a,No,1,trees,linda,NA,bonsai,yes,Please label the pictures below.,NA,NA,NA,33,NA,Pretty straightforward experiment,warmup/sequoia.png,trees,some_college,NA,English,male,NA,trees,NA,2,1585584051644,1,NA,This is a,1,NA,These are both,elm,NA,warmup2,NA,NA
2062,NA,sequoia,NA,NA,32,warmup/bonsai.jpg,redwood or sequoia (choose one),This is a,No,1,trees,linda,NA,bonsai,yes,Please label the pictures below.,NA,NA,NA,33,NA,Pretty straightforward experiment,warmup/sequoia.png,trees,some_college,NA,English,male,NA,trees,NA,2,1585584051644,2,NA,This is a,1,NA,These are both,bonsai,NA,warmup2,NA,NA
2062,What do you think is it small  relative to?,NA,images/hummingbird.png,images/bird-parade-basic.png,32,NA,NA,NA,No,1,birds,linda,NA,NA,yes,Your friend goes ahead of you. You see your friend in the distance:,NA,subject,hummingbird,33,birds,Pretty straightforward experiment,NA,NA,some_college,NA,English,male,14464,NA,You visit your friend who works at an animal shelter and you see the following:,1,1585584051644,NA,It is small  relative to other,NA,1,rescue,NA,NA,NA,custom_main_text2,small,Your friend says: <br/><b>That small hummingbird is a rescue.</b>
2062,What do you think is it big  relative to?,NA,images/redwood_sign.png,images/tree-parade-basic.png,32,NA,NA,NA,No,1,trees,linda,NA,NA,yes,Your friend goes ahead of you. You see your friend in the distance:,NA,predicate,redwood,33,trees,Pretty straightforward experiment,NA,NA,some_college,NA,English,male,5686,NA,You and your friend walk to their cabin in a park for the first time. You want to memorize the path and you see the following:,2,1585584051644,NA,It is big  relative to other,NA,1,landmark,NA,NA,NA,custom_main_text2,big,Your friend says: <br/><b>That landmark is a big redwood.</b>
2061,<i>What do you think Speaker A meant? </i>,NA,NA,NA,32,NA,NA,NA,Nothing,1,NA,Elizabeth,1,NA,confused,NA,"<b> Speaker A: ""The Empire State Building is tall.""</b>",NA,NA,34,human,Nice task to do,NA,NA,graduated_college,comp_class_warmup,english,male,NA,NA,In the main trials you will be asked to rephrase something a person said. The utterance will contain a word that is <i>relative</i> and your task is to figure out what it is relative to. <br /> <br /> For example: <br />,1,1585583928162,1,The Empire State Building is tall relative to other,NA,1.5,NA,NA,NA,"buildings, skyscrapers, houses, constructions (choose one)",comp_class_warmup,NA,NA
2061,<i>What do you think Speaker A meant? </i>,NA,NA,NA,32,NA,NA,NA,Nothing,1,NA,Elizabeth,1,NA,confused,NA,"<b> Speaker A: ""The Empire State Building is tall.""</b>",NA,NA,34,building,Nice task to do,NA,NA,graduated_college,comp_class_warmup,english,male,NA,NA,In the main trials you will be asked to rephrase something a person said. The utterance will contain a word that is <i>relative</i> and your task is to figure out what it is relative to. <br /> <br /> For example: <br />,1,1585583928162,2,The Empire State Building is tall relative to other,NA,1.5,NA,NA,NA,"buildings, skyscrapers, houses, constructions (choose one)",comp_class_warmup,NA,NA
2061,NA,small,NA,NA,32,warmup/great-dane.jpg,pug,This is a,Nothing,1,dogs2,Elizabeth,NA,great dane,confused,Please label the pictures below.,NA,NA,NA,34,NA,Nice task to do,warmup/pug.jpg,dogs,graduated_college,NA,english,male,NA,dogs,NA,1,1585583928162,1,NA,This is a,1.5,NA,These are both,tall,NA,warmup1,NA,NA
2061,NA,small,NA,NA,32,warmup/great-dane.jpg,pug,This is a,Nothing,1,dogs2,Elizabeth,NA,great dane,confused,Please label the pictures below.,NA,NA,NA,34,NA,Nice task to do,warmup/pug.jpg,dogs,graduated_college,NA,english,male,NA,dogs,NA,1,1585583928162,2,NA,This is a,1.5,NA,These are both,tall,NA,warmup1,NA,NA
2061,NA,pug,NA,NA,32,warmup/great-dane.jpg,pug,This is a,Nothing,1,dogs2,Elizabeth,NA,great dane,confused,Please label the pictures below.,NA,NA,NA,34,NA,Nice task to do,warmup/pug.jpg,dogs,graduated_college,NA,english,male,NA,dogs,NA,1,1585583928162,3,NA,This is a,1.5,NA,These are both,great done,NA,warmup1,NA,NA
2061,NA,pug,NA,NA,32,warmup/great-dane.jpg,pug,This is a,Nothing,1,dogs2,Elizabeth,NA,great dane,confused,Please label the pictures below.,NA,NA,NA,34,NA,Nice task to do,warmup/pug.jpg,dogs,graduated_college,NA,english,male,NA,dogs,NA,1,1585583928162,4,NA,This is a,1.5,NA,These are both,great dane,NA,warmup1,NA,NA
2061,NA,flower,NA,NA,32,warmup/sunflower.png,dandelion,This is a,Nothing,1,flowers,Elizabeth,NA,sunflower,confused,Please label the pictures below.,NA,NA,NA,34,NA,Nice task to do,warmup/dandelion.jpg,flower,graduated_college,NA,english,male,NA,flowers,NA,2,1585583928162,1,NA,This is a,1.5,NA,These are both,sun,NA,warmup1,NA,NA
2061,NA,dandelion,NA,NA,32,warmup/sunflower.png,dandelion,This is a,Nothing,1,flowers,Elizabeth,NA,sunflower,confused,Please label the pictures below.,NA,NA,NA,34,NA,Nice task to do,warmup/dandelion.jpg,flower,graduated_college,NA,english,male,NA,flowers,NA,2,1585583928162,2,NA,This is a,1.5,NA,These are both,sunflower,NA,warmup1,NA,NA
2061,NA,dandelion,NA,NA,32,warmup/sunflower.png,dandelion,This is a,Nothing,1,flowers,Elizabeth,NA,sunflower,confused,Please label the pictures below.,NA,NA,NA,34,NA,Nice task to do,warmup/dandelion.jpg,flowers,graduated_college,NA,english,male,NA,flowers,NA,2,1585583928162,3,NA,This is a,1.5,NA,These are both,sunflower,NA,warmup1,NA,NA
2061,NA,tree,NA,NA,32,warmup/bonsai.jpg,redwood or sequoia (choose one),This is a,Nothing,1,trees,Elizabeth,NA,bonsai,confused,Please label the pictures below.,NA,NA,NA,34,NA,Nice task to do,warmup/sequoia.png,tree,graduated_college,NA,english,male,NA,trees,NA,3,1585583928162,1,NA,This is a,1.5,NA,These are both,plant,NA,warmup1,NA,NA
2061,NA,redwood or sequoia,NA,NA,32,warmup/bonsai.jpg,redwood or sequoia (choose one),This is a,Nothing,1,trees,Elizabeth,NA,bonsai,confused,Please label the pictures below.,NA,NA,NA,34,NA,Nice task to do,warmup/sequoia.png,trees,graduated_college,NA,english,male,NA,trees,NA,3,1585583928162,2,NA,This is a,1.5,NA,These are both,bonsai,NA,warmup1,NA,NA
2061,What do you think is it big  relative to?,NA,images/great-dane.png,images/dog-parade-basic2.png,32,NA,NA,NA,Nothing,1,dogs2,Elizabeth,NA,NA,confused,Your friend goes ahead of you. You see your friend in the distance:,NA,predicate,great dane,34,human,Nice task to do,NA,NA,graduated_college,NA,english,male,6575,NA,You and your friend are at a pet show and you see the following:,1,1585583928162,NA,It is big  relative to other,NA,1.5,prize-winner,NA,NA,NA,custom_main_text1,big,Your friend says: <br/><b>That prize-winner is a big Great Dane.</b>
2061,What do you think is it small  relative to?,NA,images/dandelion.png,images/flower-parade-basic.png,32,NA,NA,NA,Nothing,1,flowers,Elizabeth,NA,NA,confused,Your friend goes ahead of you. You see your friend in the distance:,NA,predicate,dandelion,34,small,Nice task to do,NA,NA,graduated_college,NA,english,male,5215,NA,You and your friend are at their garden and you see the following:,2,1585583928162,NA,It is small  relative to other,NA,1.5,gift,NA,NA,NA,custom_main_text1,small,Your friend says: <br/><b>That gift is a small dandelion.</b>
2061,What do you think is it small  relative to?,NA,images/bonsai_stick.png,images/tree-parade-basic.png,32,NA,NA,NA,Nothing,1,trees,Elizabeth,NA,NA,confused,Your friend goes ahead of you. You see your friend in the distance:,NA,subject,bonsai,34,place,Nice task to do,NA,NA,graduated_college,NA,english,male,12368,NA,You and your friend walk to their cabin in a park for the first time. You want to memorize the path and you see the following:,3,1585583928162,NA,It is small  relative to other,NA,1.5,landmark,NA,NA,NA,custom_main_text1,small,Your friend says: <br/><b>That small bonsai is a landmark.</b>
2061,NA,bird,NA,NA,32,warmup/eagle.jpg,hummingbird,This is a,Nothing,1,birds,Elizabeth,NA,eagle,confused,Please label the pictures below.,NA,NA,NA,34,NA,Nice task to do,warmup/colibri.jpg,bird,graduated_college,NA,english,male,NA,birds,NA,1,1585583928162,1,NA,This is an,1.5,NA,These are both,hat,NA,warmup2,NA,NA
2061,NA,hummingbird,NA,NA,32,warmup/eagle.jpg,hummingbird,This is a,Nothing,1,birds,Elizabeth,NA,eagle,confused,Please label the pictures below.,NA,NA,NA,34,NA,Nice task to do,warmup/colibri.jpg,birds,graduated_college,NA,english,male,NA,birds,NA,1,1585583928162,2,NA,This is an,1.5,NA,These are both,eagle,NA,warmup2,NA,NA
2061,NA,dog,NA,NA,32,warmup/doberman.png,chihuahua,This is a,Nothing,1,dogs1,Elizabeth,NA,doberman,confused,Please label the pictures below.,NA,NA,NA,34,NA,Nice task to do,warmup/chihuahua.jpg,dogs,graduated_college,NA,english,male,NA,dogs,NA,2,1585583928162,1,NA,This is a,1.5,NA,These are both,dog,NA,warmup2,NA,NA
2061,NA,chihuahua,NA,NA,32,warmup/doberman.png,chihuahua,This is a,Nothing,1,dogs1,Elizabeth,NA,doberman,confused,Please label the pictures below.,NA,NA,NA,34,NA,Nice task to do,warmup/chihuahua.jpg,dogs,graduated_college,NA,english,male,NA,dogs,NA,2,1585583928162,2,NA,This is a,1.5,NA,These are both,doberman,NA,warmup2,NA,NA
2061,What do you think is it big  relative to?,NA,images/eagle.png,images/bird-parade-basic.png,32,NA,NA,NA,Nothing,1,birds,Elizabeth,NA,NA,confused,Your friend goes ahead of you. You see your friend in the distance:,NA,predicate,eagle,34,eagle,Nice task to do,NA,NA,graduated_college,NA,english,male,5360,NA,You visit your friend who works at an animal shelter and you see the following:,1,1585583928162,NA,It is big  relative to other,NA,1.5,rescue,NA,NA,NA,custom_main_text2,big,Your friend says: <br/><b>That rescue is a big eagle.</b>
2061,What do you think is it big relative to?,NA,images/doberman.png,images/dog-parade-basic.png,32,NA,NA,NA,Nothing,1,dogs1,Elizabeth,NA,NA,confused,Your friend goes ahead of you. You see your friend in the distance:,NA,subject,doberman,34,dog,Nice task to do,NA,NA,graduated_college,NA,english,male,7056,NA,You and your friend are at an animal training ground and you see the following:,2,1585583928162,NA,It is big relative to other,NA,1.5,service animal,NA,NA,NA,custom_main_text2,big,Your friend says: <br/><b>That big doberman is a service animal.</b>
2060,<i>What do you think Speaker A meant? </i>,NA,NA,NA,32,NA,NA,NA,No,1,NA,elizabeth,1,NA,NA,NA,"<b> Speaker A: ""The Empire State Building is tall.""</b>",NA,NA,NA,buildings,N/A,NA,NA,NA,comp_class_warmup,NA,NA,NA,NA,In the main trials you will be asked to rephrase something a person said. The utterance will contain a word that is <i>relative</i> and your task is to figure out what it is relative to. <br /> <br /> For example: <br />,1,1585583755538,1,The Empire State Building is tall relative to other,NA,1,NA,NA,NA,"buildings, skyscrapers, houses, constructions (choose one)",comp_class_warmup,NA,NA
2060,NA,hummingbird,NA,NA,32,warmup/eagle.jpg,hummingbird,This is a,No,1,birds,elizabeth,NA,eagle,NA,Please label the pictures below.,NA,NA,NA,NA,NA,N/A,warmup/colibri.jpg,birds,NA,NA,NA,NA,NA,birds,NA,1,1585583755538,1,NA,This is an,1,NA,These are both,eagle,NA,warmup1,NA,NA
2060,NA,pug,NA,NA,32,warmup/great-dane.jpg,pug,This is a,No,1,dogs2,elizabeth,NA,great dane,NA,Please label the pictures below.,NA,NA,NA,NA,NA,N/A,warmup/pug.jpg,dogs,NA,NA,NA,NA,NA,dogs,NA,2,1585583755538,1,NA,This is a,1,NA,These are both,great dane,NA,warmup1,NA,NA
2060,NA,redwood,NA,NA,32,warmup/bonsai.jpg,redwood or sequoia (choose one),This is a,No,1,trees,elizabeth,NA,bonsai,NA,Please label the pictures below.,NA,NA,NA,NA,NA,N/A,warmup/sequoia.png,trees,NA,NA,NA,NA,NA,trees,NA,3,1585583755538,1,NA,This is a,1,NA,These are both,banzai tree,NA,warmup1,NA,NA
2060,NA,redwood,NA,NA,32,warmup/bonsai.jpg,redwood or sequoia (choose one),This is a,No,1,trees,elizabeth,NA,bonsai,NA,Please label the pictures below.,NA,NA,NA,NA,NA,N/A,warmup/sequoia.png,trees,NA,NA,NA,NA,NA,trees,NA,3,1585583755538,2,NA,This is a,1,NA,These are both,bonsai,NA,warmup1,NA,NA
2060,What do you think is it small  relative to?,NA,images/hummingbird.png,images/bird-parade-basic.png,32,NA,NA,NA,No,1,birds,elizabeth,NA,NA,NA,Your friend goes ahead of you. You see your friend in the distance:,NA,predicate,hummingbird,NA,birds,N/A,NA,NA,NA,NA,NA,NA,15388,NA,You visit your friend who works at an animal shelter and you see the following:,1,1585583755538,NA,It is small  relative to other,NA,1,rescue,NA,NA,NA,custom_main_text1,small,Your friend says: <br/><b>That rescue is a small hummingbird.</b>
2060,What do you think is it small  relative to?,NA,images/bonsai_stick.png,images/tree-parade-basic.png,32,NA,NA,NA,No,1,trees,elizabeth,NA,NA,NA,Your friend goes ahead of you. You see your friend in the distance:,NA,predicate,bonsai,NA,landmarks,N/A,NA,NA,NA,NA,NA,NA,15788,NA,You and your friend walk to their cabin in a park for the first time. You want to memorize the path and you see the following:,2,1585583755538,NA,It is small  relative to other,NA,1,landmark,NA,NA,NA,custom_main_text1,small,Your friend says: <br/><b>That landmark is a small bonsai.</b>
2060,What do you think is it big  relative to?,NA,images/great-dane.png,images/dog-parade-basic2.png,32,NA,NA,NA,No,1,dogs2,elizabeth,NA,NA,NA,Your friend goes ahead of you. You see your friend in the distance:,NA,predicate,great dane,NA,dogs,N/A,NA,NA,NA,NA,NA,NA,18122,NA,You and your friend are at a pet show and you see the following:,3,1585583755538,NA,It is big  relative to other,NA,1,prize-winner,NA,NA,NA,custom_main_text1,big,Your friend says: <br/><b>That prize-winner is a big Great Dane.</b>
2060,NA,dandelion,NA,NA,32,warmup/sunflower.png,dandelion,This is a,No,1,flowers,elizabeth,NA,sunflower,NA,Please label the pictures below.,NA,NA,NA,NA,NA,N/A,warmup/dandelion.jpg,flowers,NA,NA,NA,NA,NA,flowers,NA,1,1585583755538,1,NA,This is a,1,NA,These are both,sunflower,NA,warmup2,NA,NA
2060,NA,chihuahua,NA,NA,32,warmup/doberman.png,chihuahua,This is a,No,1,dogs1,elizabeth,NA,doberman,NA,Please label the pictures below.,NA,NA,NA,NA,NA,N/A,warmup/chihuahua.jpg,dogs,NA,NA,NA,NA,NA,dogs,NA,2,1585583755538,1,NA,This is a,1,NA,These are both,doberman,NA,warmup2,NA,NA
2060,What do you think is it big  relative to?,NA,images/sunflower.png,images/flower-parade-basic.png,32,NA,NA,NA,No,1,flowers,elizabeth,NA,NA,NA,Your friend goes ahead of you. You see your friend in the distance:,NA,subject,sunflower,NA,flowers,N/A,NA,NA,NA,NA,NA,NA,10901,NA,You and your friend are at their garden and you see the following:,1,1585583755538,NA,It is big  relative to other,NA,1,gift,NA,NA,NA,custom_main_text2,big,Your friend says: <br/><b>That big sunflower is a gift.</b>
2060,What do you think is it big relative to?,NA,images/doberman.png,images/dog-parade-basic.png,32,NA,NA,NA,No,1,dogs1,elizabeth,NA,NA,NA,Your friend goes ahead of you. You see your friend in the distance:,NA,subject,doberman,NA,dobermans,N/A,NA,NA,NA,NA,NA,NA,11327,NA,You and your friend are at an animal training ground and you see the following:,2,1585583755538,NA,It is big relative to other,NA,1,service animal,NA,NA,NA,custom_main_text2,big,Your friend says: <br/><b>That big doberman is a service animal.</b>
2059,<i>What do you think Speaker A meant? </i>,NA,NA,NA,32,NA,NA,NA,no problems,2,NA,Jennifer,1,NA,yes,NA,"<b> Speaker A: ""The Empire State Building is tall.""</b>",NA,NA,45,buildings,no comment,NA,NA,graduated_college,comp_class_warmup,English,female,NA,NA,In the main trials you will be asked to rephrase something a person said. The utterance will contain a word that is <i>relative</i> and your task is to figure out what it is relative to. <br /> <br /> For example: <br />,1,1585583143119,1,The Empire State Building is tall relative to other,NA,2,NA,NA,NA,"buildings, skyscrapers, houses, constructions (choose one)",comp_class_warmup,NA,NA
2059,NA,bulldog,NA,NA,32,warmup/great-dane.jpg,pug,This is a,no problems,2,dogs2,Jennifer,NA,great dane,yes,Please label the pictures below.,NA,NA,NA,45,NA,no comment,warmup/pug.jpg,dogs,graduated_college,NA,English,female,NA,dogs,NA,1,1585583143119,1,NA,This is a,2,NA,These are both,dobermann,NA,warmup1,NA,NA
2059,NA,bulldog,NA,NA,32,warmup/great-dane.jpg,pug,This is a,no problems,2,dogs2,Jennifer,NA,great dane,yes,Please label the pictures below.,NA,NA,NA,45,NA,no comment,warmup/pug.jpg,dogs,graduated_college,NA,English,female,NA,dogs,NA,1,1585583143119,2,NA,This is a,2,NA,These are both,dobermann,NA,warmup1,NA,NA
2059,NA,pug,NA,NA,32,warmup/great-dane.jpg,pug,This is a,no problems,2,dogs2,Jennifer,NA,great dane,yes,Please label the pictures below.,NA,NA,NA,45,NA,no comment,warmup/pug.jpg,dogs,graduated_college,NA,English,female,NA,dogs,NA,1,1585583143119,3,NA,This is a,2,NA,These are both,great dane,NA,warmup1,NA,NA
2059,NA,sparrow,NA,NA,32,warmup/eagle.jpg,hummingbird,This is a,no problems,2,birds,Jennifer,NA,eagle,yes,Please label the pictures below.,NA,NA,NA,45,NA,no comment,warmup/colibri.jpg,birds,graduated_college,NA,English,female,NA,birds,NA,2,1585583143119,1,NA,This is an,2,NA,These are both,eagle,NA,warmup1,NA,NA
2059,NA,hummingbird,NA,NA,32,warmup/eagle.jpg,hummingbird,This is a,no problems,2,birds,Jennifer,NA,eagle,yes,Please label the pictures below.,NA,NA,NA,45,NA,no comment,warmup/colibri.jpg,birds,graduated_college,NA,English,female,NA,birds,NA,2,1585583143119,2,NA,This is an,2,NA,These are both,eagle,NA,warmup1,NA,NA
2059,NA,oak,NA,NA,32,warmup/bonsai.jpg,redwood or sequoia (choose one),This is a,no problems,2,trees,Jennifer,NA,bonsai,yes,Please label the pictures below.,NA,NA,NA,45,NA,no comment,warmup/sequoia.png,trees,graduated_college,NA,English,female,NA,trees,NA,3,1585583143119,1,NA,This is a,2,NA,These are both,walnut tree,NA,warmup1,NA,NA
2059,NA,redwood,NA,NA,32,warmup/bonsai.jpg,redwood or sequoia (choose one),This is a,no problems,2,trees,Jennifer,NA,bonsai,yes,Please label the pictures below.,NA,NA,NA,45,NA,no comment,warmup/sequoia.png,trees,graduated_college,NA,English,female,NA,trees,NA,3,1585583143119,2,NA,This is a,2,NA,These are both,bonsai,NA,warmup1,NA,NA
2059,What do you think is it big  relative to?,NA,images/eagle.png,images/bird-parade-basic.png,32,NA,NA,NA,no problems,2,birds,Jennifer,NA,NA,yes,Your friend goes ahead of you. You see your friend in the distance:,NA,predicate,eagle,45,eagles,no comment,NA,NA,graduated_college,NA,English,female,27435,NA,You visit your friend who works at an animal shelter and you see the following:,1,1585583143119,NA,It is big  relative to other,NA,2,rescue,NA,NA,NA,custom_main_text1,big,Your friend says: <br/><b>That rescue is a big eagle.</b>
2059,What do you think is it small  relative to?,NA,images/pug.png,images/dog-parade-basic2.png,32,NA,NA,NA,no problems,2,dogs2,Jennifer,NA,NA,yes,Your friend goes ahead of you. You see your friend in the distance:,NA,subject,pug,45,dogs,no comment,NA,NA,graduated_college,NA,English,female,23723,NA,You and your friend are at a pet show and you see the following:,2,1585583143119,NA,It is small  relative to other,NA,2,prize-winner,NA,NA,NA,custom_main_text1,small,Your friend says: <br/><b>That small pug is a prize-winner.</b>
2059,What do you think is it big  relative to?,NA,images/redwood_sign.png,images/tree-parade-basic.png,32,NA,NA,NA,no problems,2,trees,Jennifer,NA,NA,yes,Your friend goes ahead of you. You see your friend in the distance:,NA,predicate,redwood,45,trees,no comment,NA,NA,graduated_college,NA,English,female,15676,NA,You and your friend walk to their cabin in a park for the first time. You want to memorize the path and you see the following:,3,1585583143119,NA,It is big  relative to other,NA,2,landmark,NA,NA,NA,custom_main_text1,big,Your friend says: <br/><b>That landmark is a big redwood.</b>
2059,NA,rose,NA,NA,32,warmup/sunflower.png,dandelion,This is a,no problems,2,flowers,Jennifer,NA,sunflower,yes,Please label the pictures below.,NA,NA,NA,45,NA,no comment,warmup/dandelion.jpg,flowers,graduated_college,NA,English,female,NA,flowers,NA,1,1585583143119,1,NA,This is a,2,NA,These are both,sunflower,NA,warmup2,NA,NA
2059,NA,dandelion,NA,NA,32,warmup/sunflower.png,dandelion,This is a,no problems,2,flowers,Jennifer,NA,sunflower,yes,Please label the pictures below.,NA,NA,NA,45,NA,no comment,warmup/dandelion.jpg,flowers,graduated_college,NA,English,female,NA,flowers,NA,1,1585583143119,2,NA,This is a,2,NA,These are both,sunflower,NA,warmup2,NA,NA
2059,NA,chihuahua,NA,NA,32,warmup/doberman.png,chihuahua,This is a,no problems,2,dogs1,Jennifer,NA,doberman,yes,Please label the pictures below.,NA,NA,NA,45,NA,no comment,warmup/chihuahua.jpg,dogs,graduated_college,NA,English,female,NA,dogs,NA,2,1585583143119,1,NA,This is a,2,NA,These are both,dobermann,NA,warmup2,NA,NA
2059,NA,chihuahua,NA,NA,32,warmup/doberman.png,chihuahua,This is a,no problems,2,dogs1,Jennifer,NA,doberman,yes,Please label the pictures below.,NA,NA,NA,45,NA,no comment,warmup/chihuahua.jpg,dogs,graduated_college,NA,English,female,NA,dogs,NA,2,1585583143119,2,NA,This is a,2,NA,These are both,doberman,NA,warmup2,NA,NA
2059,What do you think is it big relative to?,NA,images/doberman.png,images/dog-parade-basic.png,32,NA,NA,NA,no problems,2,dogs1,Jennifer,NA,NA,yes,Your friend goes ahead of you. You see your friend in the distance:,NA,predicate,doberman,45,dogs,no comment,NA,NA,graduated_college,NA,English,female,6906,NA,You and your friend are at an animal training ground and you see the following:,1,1585583143119,NA,It is big relative to other,NA,2,service animal,NA,NA,NA,custom_main_text2,big,Your friend says: <br/><b>That service animal is a big doberman..</b>
2059,What do you think is it small  relative to?,NA,images/dandelion.png,images/flower-parade-basic.png,32,NA,NA,NA,no problems,2,flowers,Jennifer,NA,NA,yes,Your friend goes ahead of you. You see your friend in the distance:,NA,subject,dandelion,45,dandelion,no comment,NA,NA,graduated_college,NA,English,female,13844,NA,You and your friend are at their garden and you see the following:,2,1585583143119,NA,It is small  relative to other,NA,2,gift,NA,NA,NA,custom_main_text2,small,Your friend says: <br/><b>That small dandelion is a gift.</b>
2058,<i>What do you think Speaker A meant? </i>,NA,NA,NA,32,NA,NA,NA,no,2,NA,linda,1,NA,yes,NA,"<b> Speaker A: ""The Empire State Building is tall.""</b>",NA,NA,58,buildings,NA,NA,NA,graduated_college,comp_class_warmup,english,male,NA,NA,In the main trials you will be asked to rephrase something a person said. The utterance will contain a word that is <i>relative</i> and your task is to figure out what it is relative to. <br /> <br /> For example: <br />,1,1585582916100,1,The Empire State Building is tall relative to other,NA,1,NA,NA,NA,"buildings, skyscrapers, houses, constructions (choose one)",comp_class_warmup,NA,NA
2058,NA,tree,NA,NA,32,warmup/bonsai.jpg,redwood or sequoia (choose one),This is a,no,2,trees,linda,NA,bonsai,yes,Please label the pictures below.,NA,NA,NA,58,NA,NA,warmup/sequoia.png,plants,graduated_college,NA,english,male,NA,trees,NA,1,1585582916100,1,NA,This is a,1,NA,These are both,growing plant,NA,warmup1,NA,NA
2058,NA,redwood,NA,NA,32,warmup/bonsai.jpg,redwood or sequoia (choose one),This is a,no,2,trees,linda,NA,bonsai,yes,Please label the pictures below.,NA,NA,NA,58,NA,NA,warmup/sequoia.png,trees,graduated_college,NA,english,male,NA,trees,NA,1,1585582916100,2,NA,This is a,1,NA,These are both,bonsai,NA,warmup1,NA,NA
2058,NA,flower,NA,NA,32,warmup/sunflower.png,dandelion,This is a,no,2,flowers,linda,NA,sunflower,yes,Please label the pictures below.,NA,NA,NA,58,NA,NA,warmup/dandelion.jpg,flowers,graduated_college,NA,english,male,NA,flowers,NA,2,1585582916100,1,NA,This is a,1,NA,These are both,sunflower,NA,warmup1,NA,NA
2058,NA,flower,NA,NA,32,warmup/sunflower.png,dandelion,This is a,no,2,flowers,linda,NA,sunflower,yes,Please label the pictures below.,NA,NA,NA,58,NA,NA,warmup/dandelion.jpg,flowers,graduated_college,NA,english,male,NA,flowers,NA,2,1585582916100,2,NA,This is a,1,NA,These are both,sunflower,NA,warmup1,NA,NA
2058,NA,dandelion,NA,NA,32,warmup/sunflower.png,dandelion,This is a,no,2,flowers,linda,NA,sunflower,yes,Please label the pictures below.,NA,NA,NA,58,NA,NA,warmup/dandelion.jpg,flowers,graduated_college,NA,english,male,NA,flowers,NA,2,1585582916100,3,NA,This is a,1,NA,These are both,sunflower,NA,warmup1,NA,NA
2058,NA,bulldog,NA,NA,32,warmup/great-dane.jpg,pug,This is a,no,2,dogs2,linda,NA,great dane,yes,Please label the pictures below.,NA,NA,NA,58,NA,NA,warmup/pug.jpg,dogs,graduated_college,NA,english,male,NA,dogs,NA,3,1585582916100,1,NA,This is a,1,NA,These are both,dog,NA,warmup1,NA,NA
2058,NA,pug,NA,NA,32,warmup/great-dane.jpg,pug,This is a,no,2,dogs2,linda,NA,great dane,yes,Please label the pictures below.,NA,NA,NA,58,NA,NA,warmup/pug.jpg,dogs,graduated_college,NA,english,male,NA,dogs,NA,3,1585582916100,2,NA,This is a,1,NA,These are both,dane,NA,warmup1,NA,NA
2058,NA,pug,NA,NA,32,warmup/great-dane.jpg,pug,This is a,no,2,dogs2,linda,NA,great dane,yes,Please label the pictures below.,NA,NA,NA,58,NA,NA,warmup/pug.jpg,dogs,graduated_college,NA,english,male,NA,dogs,NA,3,1585582916100,3,NA,This is a,1,NA,These are both,great dane,NA,warmup1,NA,NA
2058,What do you think is it big  relative to?,NA,images/redwood_sign.png,images/tree-parade-basic.png,32,NA,NA,NA,no,2,trees,linda,NA,NA,yes,Your friend goes ahead of you. You see your friend in the distance:,NA,subject,redwood,58,trees,NA,NA,NA,graduated_college,NA,english,male,61284,NA,You and your friend walk to their cabin in a park for the first time. You want to memorize the path and you see the following:,1,1585582916100,NA,It is big  relative to other,NA,1,landmark,NA,NA,NA,custom_main_text1,big,Your friend says: <br/><b>That big redwood is a landmark.</b>
2058,What do you think is it big  relative to?,NA,images/great-dane.png,images/dog-parade-basic2.png,32,NA,NA,NA,no,2,dogs2,linda,NA,NA,yes,Your friend goes ahead of you. You see your friend in the distance:,NA,subject,great dane,58,dogs,NA,NA,NA,graduated_college,NA,english,male,16504,NA,You and your friend are at a pet show and you see the following:,2,1585582916100,NA,It is big  relative to other,NA,1,prize-winner,NA,NA,NA,custom_main_text1,big,Your friend says: <br/><b>That big Great Dane is a prize-winner.</b>
2058,What do you think is it big  relative to?,NA,images/sunflower.png,images/flower-parade-basic.png,32,NA,NA,NA,no,2,flowers,linda,NA,NA,yes,Your friend goes ahead of you. You see your friend in the distance:,NA,subject,sunflower,58,flowers,NA,NA,NA,graduated_college,NA,english,male,22796,NA,You and your friend are at their garden and you see the following:,3,1585582916100,NA,It is big  relative to other,NA,1,gift,NA,NA,NA,custom_main_text1,big,Your friend says: <br/><b>That big sunflower is a gift.</b>
2058,NA,puppy,NA,NA,32,warmup/doberman.png,chihuahua,This is a,no,2,dogs1,linda,NA,doberman,yes,Please label the pictures below.,NA,NA,NA,58,NA,NA,warmup/chihuahua.jpg,dogs,graduated_college,NA,english,male,NA,dogs,NA,1,1585582916100,1,NA,This is a,1,NA,These are both,dog,NA,warmup2,NA,NA
2058,NA,chihuahua,NA,NA,32,warmup/doberman.png,chihuahua,This is a,no,2,dogs1,linda,NA,doberman,yes,Please label the pictures below.,NA,NA,NA,58,NA,NA,warmup/chihuahua.jpg,dogs,graduated_college,NA,english,male,NA,dogs,NA,1,1585582916100,2,NA,This is a,1,NA,These are both,doberman,NA,warmup2,NA,NA
2058,NA,peacock,NA,NA,32,warmup/eagle.jpg,hummingbird,This is a,no,2,birds,linda,NA,eagle,yes,Please label the pictures below.,NA,NA,NA,58,NA,NA,warmup/colibri.jpg,birds,graduated_college,NA,english,male,NA,birds,NA,2,1585582916100,1,NA,This is an,1,NA,These are both,parrot,NA,warmup2,NA,NA
2058,NA,hummingbird,NA,NA,32,warmup/eagle.jpg,hummingbird,This is a,no,2,birds,linda,NA,eagle,yes,Please label the pictures below.,NA,NA,NA,58,NA,NA,warmup/colibri.jpg,birds,graduated_college,NA,english,male,NA,birds,NA,2,1585582916100,2,NA,This is an,1,NA,These are both,eagle,NA,warmup2,NA,NA
2058,What do you think is it small relative to?,NA,images/chihuahua.png,images/dog-parade-basic.png,32,NA,NA,NA,no,2,dogs1,linda,NA,NA,yes,Your friend goes ahead of you. You see your friend in the distance:,NA,predicate,chihuahua,58,dogs,NA,NA,NA,graduated_college,NA,english,male,32689,NA,You and your friend are at an animal training ground and you see the following:,1,1585582916100,NA,It is small relative to other,NA,1,service animal,NA,NA,NA,custom_main_text2,small,Your friend says: <br/><b>That service animal is a small chihuahua.</b>
2058,What do you think is it small  relative to?,NA,images/hummingbird.png,images/bird-parade-basic.png,32,NA,NA,NA,no,2,birds,linda,NA,NA,yes,Your friend goes ahead of you. You see your friend in the distance:,NA,predicate,hummingbird,58,birds,NA,NA,NA,graduated_college,NA,english,male,10118,NA,You visit your friend who works at an animal shelter and you see the following:,2,1585582916100,NA,It is small  relative to other,NA,1,rescue,NA,NA,NA,custom_main_text2,small,Your friend says: <br/><b>That rescue is a small hummingbird.</b>
2057,<i>What do you think Speaker A meant? </i>,NA,NA,NA,32,NA,NA,NA,n/a,2,NA,jennifer,1,NA,yes,NA,"<b> Speaker A: ""The Empire State Building is tall.""</b>",NA,NA,34,buildings,n/a,NA,NA,graduated_high_school,comp_class_warmup,English,male,NA,NA,In the main trials you will be asked to rephrase something a person said. The utterance will contain a word that is <i>relative</i> and your task is to figure out what it is relative to. <br /> <br /> For example: <br />,1,1585583348856,1,The Empire State Building is tall relative to other,NA,1.2,NA,NA,NA,"buildings, skyscrapers, houses, constructions (choose one)",comp_class_warmup,NA,NA
2057,NA,dandalion,NA,NA,32,warmup/sunflower.png,dandelion,This is a,n/a,2,flowers,jennifer,NA,sunflower,yes,Please label the pictures below.,NA,NA,NA,34,NA,n/a,warmup/dandelion.jpg,flowers,graduated_high_school,NA,English,male,NA,flowers,NA,1,1585583348856,1,NA,This is a,1.2,NA,These are both,sunflower,NA,warmup1,NA,NA
2057,NA,dandelion,NA,NA,32,warmup/sunflower.png,dandelion,This is a,n/a,2,flowers,jennifer,NA,sunflower,yes,Please label the pictures below.,NA,NA,NA,34,NA,n/a,warmup/dandelion.jpg,flowers,graduated_high_school,NA,English,male,NA,flowers,NA,1,1585583348856,2,NA,This is a,1.2,NA,These are both,sunflower,NA,warmup1,NA,NA
2057,NA,chihuahua,NA,NA,32,warmup/doberman.png,chihuahua,This is a,n/a,2,dogs1,jennifer,NA,doberman,yes,Please label the pictures below.,NA,NA,NA,34,NA,n/a,warmup/chihuahua.jpg,dogs,graduated_high_school,NA,English,male,NA,dogs,NA,2,1585583348856,1,NA,This is a,1.2,NA,These are both,Doberman,NA,warmup1,NA,NA
2057,NA,pug,NA,NA,32,warmup/great-dane.jpg,pug,This is a,n/a,2,dogs2,jennifer,NA,great dane,yes,Please label the pictures below.,NA,NA,NA,34,NA,n/a,warmup/pug.jpg,dogs,graduated_high_school,NA,English,male,NA,dogs,NA,3,1585583348856,1,NA,This is a,1.2,NA,These are both,great dane,NA,warmup1,NA,NA
2057,What do you think is it small relative to?,NA,images/chihuahua.png,images/dog-parade-basic.png,32,NA,NA,NA,n/a,2,dogs1,jennifer,NA,NA,yes,Your friend goes ahead of you. You see your friend in the distance:,NA,subject,chihuahua,34,dogs,n/a,NA,NA,graduated_high_school,NA,English,male,26988,NA,You and your friend are at an animal training ground and you see the following:,1,1585583348856,NA,It is small relative to other,NA,1.2,service animal,NA,NA,NA,custom_main_text1,small,Your friend says: <br/><b>That small chihuahua is a service animal.</b>
2057,What do you think is it small  relative to?,NA,images/pug.png,images/dog-parade-basic2.png,32,NA,NA,NA,n/a,2,dogs2,jennifer,NA,NA,yes,Your friend goes ahead of you. You see your friend in the distance:,NA,subject,pug,34,dogs,n/a,NA,NA,graduated_high_school,NA,English,male,8397,NA,You and your friend are at a pet show and you see the following:,2,1585583348856,NA,It is small  relative to other,NA,1.2,prize-winner,NA,NA,NA,custom_main_text1,small,Your friend says: <br/><b>That small pug is a prize-winner.</b>
2057,What do you think is it big  relative to?,NA,images/sunflower.png,images/flower-parade-basic.png,32,NA,NA,NA,n/a,2,flowers,jennifer,NA,NA,yes,Your friend goes ahead of you. You see your friend in the distance:,NA,predicate,sunflower,34,sunflowers,n/a,NA,NA,graduated_high_school,NA,English,male,15346,NA,You and your friend are at their garden and you see the following:,3,1585583348856,NA,It is big  relative to other,NA,1.2,gift,NA,NA,NA,custom_main_text1,big,Your friend says: <br/><b>That gift is a big sunflower.</b>
2057,NA,humming bird,NA,NA,32,warmup/eagle.jpg,hummingbird,This is a,n/a,2,birds,jennifer,NA,eagle,yes,Please label the pictures below.,NA,NA,NA,34,NA,n/a,warmup/colibri.jpg,bird,graduated_high_school,NA,English,male,NA,birds,NA,1,1585583348856,1,NA,This is an,1.2,NA,These are both,eagle,NA,warmup2,NA,NA
2057,NA,hummingbird,NA,NA,32,warmup/eagle.jpg,hummingbird,This is a,n/a,2,birds,jennifer,NA,eagle,yes,Please label the pictures below.,NA,NA,NA,34,NA,n/a,warmup/colibri.jpg,birds,graduated_high_school,NA,English,male,NA,birds,NA,1,1585583348856,2,NA,This is an,1.2,NA,These are both,eagle,NA,warmup2,NA,NA
2057,NA,redwood,NA,NA,32,warmup/bonsai.jpg,redwood or sequoia (choose one),This is a,n/a,2,trees,jennifer,NA,bonsai,yes,Please label the pictures below.,NA,NA,NA,34,NA,n/a,warmup/sequoia.png,trees,graduated_high_school,NA,English,male,NA,trees,NA,2,1585583348856,1,NA,This is a,1.2,NA,These are both,bonsai,NA,warmup2,NA,NA
2057,What do you think is it big  relative to?,NA,images/redwood_sign.png,images/tree-parade-basic.png,32,NA,NA,NA,n/a,2,trees,jennifer,NA,NA,yes,Your friend goes ahead of you. You see your friend in the distance:,NA,predicate,redwood,34,redwoods,n/a,NA,NA,graduated_high_school,NA,English,male,14082,NA,You and your friend walk to their cabin in a park for the first time. You want to memorize the path and you see the following:,1,1585583348856,NA,It is big  relative to other,NA,1.2,landmark,NA,NA,NA,custom_main_text2,big,Your friend says: <br/><b>That landmark is a big redwood.</b>
2057,What do you think is it big  relative to?,NA,images/eagle.png,images/bird-parade-basic.png,32,NA,NA,NA,n/a,2,birds,jennifer,NA,NA,yes,Your friend goes ahead of you. You see your friend in the distance:,NA,subject,eagle,34,birds,n/a,NA,NA,graduated_high_school,NA,English,male,14349,NA,You visit your friend who works at an animal shelter and you see the following:,2,1585583348856,NA,It is big  relative to other,NA,1.2,rescue,NA,NA,NA,custom_main_text2,big,Your friend says: <br/><b>That big eagle is a rescue.</b>
2056,<i>What do you think Speaker A meant? </i>,NA,NA,NA,32,NA,NA,NA,NA,1,NA,Margaret,1,NA,yes,NA,"<b> Speaker A: ""The Empire State Building is tall.""</b>",NA,NA,27,buildings,NA,NA,NA,graduated_college,comp_class_warmup,English,male,NA,NA,In the main trials you will be asked to rephrase something a person said. The utterance will contain a word that is <i>relative</i> and your task is to figure out what it is relative to. <br /> <br /> For example: <br />,1,1585582888791,1,The Empire State Building is tall relative to other,NA,1.2,NA,NA,NA,"buildings, skyscrapers, houses, constructions (choose one)",comp_class_warmup,NA,NA
2056,NA,small flower,NA,NA,32,warmup/sunflower.png,dandelion,This is a,NA,1,flowers,Margaret,NA,sunflower,yes,Please label the pictures below.,NA,NA,NA,27,NA,NA,warmup/dandelion.jpg,flowers,graduated_college,NA,English,male,NA,flowers,NA,1,1585582888791,1,NA,This is a,1.2,NA,These are both,bigger flower,NA,warmup1,NA,NA
2056,NA,dandelion,NA,NA,32,warmup/sunflower.png,dandelion,This is a,NA,1,flowers,Margaret,NA,sunflower,yes,Please label the pictures below.,NA,NA,NA,27,NA,NA,warmup/dandelion.jpg,flowers,graduated_college,NA,English,male,NA,flowers,NA,1,1585582888791,2,NA,This is a,1.2,NA,These are both,sunflower,NA,warmup1,NA,NA
2056,NA,redwood,NA,NA,32,warmup/bonsai.jpg,redwood or sequoia (choose one),This is a,NA,1,trees,Margaret,NA,bonsai,yes,Please label the pictures below.,NA,NA,NA,27,NA,NA,warmup/sequoia.png,trees,graduated_college,NA,English,male,NA,trees,NA,2,1585582888791,1,NA,This is a,1.2,NA,These are both,bonsai,NA,warmup1,NA,NA
2056,NA,hummingbird,NA,NA,32,warmup/eagle.jpg,hummingbird,This is a,NA,1,birds,Margaret,NA,eagle,yes,Please label the pictures below.,NA,NA,NA,27,NA,NA,warmup/colibri.jpg,birds,graduated_college,NA,English,male,NA,birds,NA,3,1585582888791,1,NA,This is an,1.2,NA,These are both,eage,NA,warmup1,NA,NA
2056,NA,hummingbird,NA,NA,32,warmup/eagle.jpg,hummingbird,This is a,NA,1,birds,Margaret,NA,eagle,yes,Please label the pictures below.,NA,NA,NA,27,NA,NA,warmup/colibri.jpg,birds,graduated_college,NA,English,male,NA,birds,NA,3,1585582888791,2,NA,This is an,1.2,NA,These are both,eagle,NA,warmup1,NA,NA
2056,What do you think is it small  relative to?,NA,images/bonsai_stick.png,images/tree-parade-basic.png,32,NA,NA,NA,NA,1,trees,Margaret,NA,NA,yes,Your friend goes ahead of you. You see your friend in the distance:,NA,predicate,bonsai,27,trees,NA,NA,NA,graduated_college,NA,English,male,10046,NA,You and your friend walk to their cabin in a park for the first time. You want to memorize the path and you see the following:,1,1585582888791,NA,It is small  relative to other,NA,1.2,landmark,NA,NA,NA,custom_main_text1,small,Your friend says: <br/><b>That landmark is a small bonsai.</b>
2056,What do you think is it big  relative to?,NA,images/sunflower.png,images/flower-parade-basic.png,32,NA,NA,NA,NA,1,flowers,Margaret,NA,NA,yes,Your friend goes ahead of you. You see your friend in the distance:,NA,subject,sunflower,27,flowers,NA,NA,NA,graduated_college,NA,English,male,5243,NA,You and your friend are at their garden and you see the following:,2,1585582888791,NA,It is big  relative to other,NA,1.2,gift,NA,NA,NA,custom_main_text1,big,Your friend says: <br/><b>That big sunflower is a gift.</b>
2056,What do you think is it big  relative to?,NA,images/eagle.png,images/bird-parade-basic.png,32,NA,NA,NA,NA,1,birds,Margaret,NA,NA,yes,Your friend goes ahead of you. You see your friend in the distance:,NA,subject,eagle,27,birds,NA,NA,NA,graduated_college,NA,English,male,5630,NA,You visit your friend who works at an animal shelter and you see the following:,3,1585582888791,NA,It is big  relative to other,NA,1.2,rescue,NA,NA,NA,custom_main_text1,big,Your friend says: <br/><b>That big eagle is a rescue.</b>
2056,NA,pug,NA,NA,32,warmup/great-dane.jpg,pug,This is a,NA,1,dogs2,Margaret,NA,great dane,yes,Please label the pictures below.,NA,NA,NA,27,NA,NA,warmup/pug.jpg,dogs,graduated_college,NA,English,male,NA,dogs,NA,1,1585582888791,1,NA,This is a,1.2,NA,These are both,great dane,NA,warmup2,NA,NA
2056,NA,chihoua,NA,NA,32,warmup/doberman.png,chihuahua,This is a,NA,1,dogs1,Margaret,NA,doberman,yes,Please label the pictures below.,NA,NA,NA,27,NA,NA,warmup/chihuahua.jpg,dogs,graduated_college,NA,English,male,NA,dogs,NA,2,1585582888791,1,NA,This is a,1.2,NA,These are both,boxer,NA,warmup2,NA,NA
2056,NA,chihuahua,NA,NA,32,warmup/doberman.png,chihuahua,This is a,NA,1,dogs1,Margaret,NA,doberman,yes,Please label the pictures below.,NA,NA,NA,27,NA,NA,warmup/chihuahua.jpg,dogs,graduated_college,NA,English,male,NA,dogs,NA,2,1585582888791,2,NA,This is a,1.2,NA,These are both,doberman,NA,warmup2,NA,NA
2056,What do you think is it small relative to?,NA,images/chihuahua.png,images/dog-parade-basic.png,32,NA,NA,NA,NA,1,dogs1,Margaret,NA,NA,yes,Your friend goes ahead of you. You see your friend in the distance:,NA,subject,chihuahua,27,dogs,NA,NA,NA,graduated_college,NA,English,male,4862,NA,You and your friend are at an animal training ground and you see the following:,1,1585582888791,NA,It is small relative to other,NA,1.2,service animal,NA,NA,NA,custom_main_text2,small,Your friend says: <br/><b>That small chihuahua is a service animal.</b>
2056,What do you think is it small  relative to?,NA,images/pug.png,images/dog-parade-basic2.png,32,NA,NA,NA,NA,1,dogs2,Margaret,NA,NA,yes,Your friend goes ahead of you. You see your friend in the distance:,NA,predicate,pug,27,dogs,NA,NA,NA,graduated_college,NA,English,male,3608,NA,You and your friend are at a pet show and you see the following:,2,1585582888791,NA,It is small  relative to other,NA,1.2,prize-winner,NA,NA,NA,custom_main_text2,small,Your friend says: <br/><b>That prize-winner is a small pug.</b>
2055,<i>What do you think Speaker A meant? </i>,NA,NA,NA,32,NA,NA,NA,no,2,NA,sarah,1,NA,yes,NA,"<b> Speaker A: ""The Empire State Building is tall.""</b>",NA,NA,37,buildings,NA,NA,NA,graduated_college,comp_class_warmup,english,male,NA,NA,In the main trials you will be asked to rephrase something a person said. The utterance will contain a word that is <i>relative</i> and your task is to figure out what it is relative to. <br /> <br /> For example: <br />,1,1585582894091,1,The Empire State Building is tall relative to other,NA,1,NA,NA,NA,"buildings, skyscrapers, houses, constructions (choose one)",comp_class_warmup,NA,NA
2055,NA,dandelion,NA,NA,32,warmup/sunflower.png,dandelion,This is a,no,2,flowers,sarah,NA,sunflower,yes,Please label the pictures below.,NA,NA,NA,37,NA,NA,warmup/dandelion.jpg,flowers,graduated_college,NA,english,male,NA,flowers,NA,1,1585582894091,1,NA,This is a,1,NA,These are both,sunflower,NA,warmup1,NA,NA
2055,NA,pug,NA,NA,32,warmup/great-dane.jpg,pug,This is a,no,2,dogs2,sarah,NA,great dane,yes,Please label the pictures below.,NA,NA,NA,37,NA,NA,warmup/pug.jpg,dogs,graduated_college,NA,english,male,NA,dogs,NA,2,1585582894091,1,NA,This is a,1,NA,These are both,great dane,NA,warmup1,NA,NA
2055,NA,hummingbird,NA,NA,32,warmup/eagle.jpg,hummingbird,This is a,no,2,birds,sarah,NA,eagle,yes,Please label the pictures below.,NA,NA,NA,37,NA,NA,warmup/colibri.jpg,birds,graduated_college,NA,english,male,NA,birds,NA,3,1585582894091,1,NA,This is an,1,NA,These are both,eagle,NA,warmup1,NA,NA
2055,What do you think is it big  relative to?,NA,images/great-dane.png,images/dog-parade-basic2.png,32,NA,NA,NA,no,2,dogs2,sarah,NA,NA,yes,Your friend goes ahead of you. You see your friend in the distance:,NA,subject,great dane,37,dogs,NA,NA,NA,graduated_college,NA,english,male,9873,NA,You and your friend are at a pet show and you see the following:,1,1585582894091,NA,It is big  relative to other,NA,1,prize-winner,NA,NA,NA,custom_main_text1,big,Your friend says: <br/><b>That big Great Dane is a prize-winner.</b>
2055,What do you think is it big  relative to?,NA,images/sunflower.png,images/flower-parade-basic.png,32,NA,NA,NA,no,2,flowers,sarah,NA,NA,yes,Your friend goes ahead of you. You see your friend in the distance:,NA,predicate,sunflower,37,flowers,NA,NA,NA,graduated_college,NA,english,male,8096,NA,You and your friend are at their garden and you see the following:,2,1585582894091,NA,It is big  relative to other,NA,1,gift,NA,NA,NA,custom_main_text1,big,Your friend says: <br/><b>That gift is a big sunflower.</b>
2055,What do you think is it small  relative to?,NA,images/hummingbird.png,images/bird-parade-basic.png,32,NA,NA,NA,no,2,birds,sarah,NA,NA,yes,Your friend goes ahead of you. You see your friend in the distance:,NA,predicate,hummingbird,37,birds,NA,NA,NA,graduated_college,NA,english,male,10262,NA,You visit your friend who works at an animal shelter and you see the following:,3,1585582894091,NA,It is small  relative to other,NA,1,rescue,NA,NA,NA,custom_main_text1,small,Your friend says: <br/><b>That rescue is a small hummingbird.</b>
2055,NA,chihuahua,NA,NA,32,warmup/doberman.png,chihuahua,This is a,no,2,dogs1,sarah,NA,doberman,yes,Please label the pictures below.,NA,NA,NA,37,NA,NA,warmup/chihuahua.jpg,dogs,graduated_college,NA,english,male,NA,dogs,NA,1,1585582894091,1,NA,This is a,1,NA,These are both,doberman,NA,warmup2,NA,NA
2055,NA,redwood,NA,NA,32,warmup/bonsai.jpg,redwood or sequoia (choose one),This is a,no,2,trees,sarah,NA,bonsai,yes,Please label the pictures below.,NA,NA,NA,37,NA,NA,warmup/sequoia.png,trees,graduated_college,NA,english,male,NA,trees,NA,2,1585582894091,1,NA,This is a,1,NA,These are both,bonsai,NA,warmup2,NA,NA
2055,What do you think is it small  relative to?,NA,images/bonsai_stick.png,images/tree-parade-basic.png,32,NA,NA,NA,no,2,trees,sarah,NA,NA,yes,Your friend goes ahead of you. You see your friend in the distance:,NA,predicate,bonsai,37,trees,NA,NA,NA,graduated_college,NA,english,male,6663,NA,You and your friend walk to their cabin in a park for the first time. You want to memorize the path and you see the following:,1,1585582894091,NA,It is small  relative to other,NA,1,landmark,NA,NA,NA,custom_main_text2,small,Your friend says: <br/><b>That landmark is a small bonsai.</b>
2055,What do you think is it small relative to?,NA,images/chihuahua.png,images/dog-parade-basic.png,32,NA,NA,NA,no,2,dogs1,sarah,NA,NA,yes,Your friend goes ahead of you. You see your friend in the distance:,NA,subject,chihuahua,37,dogs,NA,NA,NA,graduated_college,NA,english,male,6251,NA,You and your friend are at an animal training ground and you see the following:,2,1585582894091,NA,It is small relative to other,NA,1,service animal,NA,NA,NA,custom_main_text2,small,Your friend says: <br/><b>That small chihuahua is a service animal.</b>
2054,<i>What do you think Speaker A meant? </i>,NA,NA,NA,32,NA,NA,NA,no,1,NA,susan,1,NA,yes,NA,"<b> Speaker A: ""The Empire State Building is tall.""</b>",NA,NA,29,A\nothers,good,NA,NA,graduated_college,comp_class_warmup,english,male,NA,NA,In the main trials you will be asked to rephrase something a person said. The utterance will contain a word that is <i>relative</i> and your task is to figure out what it is relative to. <br /> <br /> For example: <br />,1,1585606188314,1,The Empire State Building is tall relative to other,NA,1,NA,NA,NA,"buildings, skyscrapers, houses, constructions (choose one)",comp_class_warmup,NA,NA
2054,<i>What do you think Speaker A meant? </i>,NA,NA,NA,32,NA,NA,NA,no,1,NA,susan,1,NA,yes,NA,"<b> Speaker A: ""The Empire State Building is tall.""</b>",NA,NA,29,A\nothers,good,NA,NA,graduated_college,comp_class_warmup,english,male,NA,NA,In the main trials you will be asked to rephrase something a person said. The utterance will contain a word that is <i>relative</i> and your task is to figure out what it is relative to. <br /> <br /> For example: <br />,1,1585606188314,2,The Empire State Building is tall relative to other,NA,1,NA,NA,NA,"buildings, skyscrapers, houses, constructions (choose one)",comp_class_warmup,NA,NA
2054,<i>What do you think Speaker A meant? </i>,NA,NA,NA,32,NA,NA,NA,no,1,NA,susan,1,NA,yes,NA,"<b> Speaker A: ""The Empire State Building is tall.""</b>",NA,NA,29,building,good,NA,NA,graduated_college,comp_class_warmup,english,male,NA,NA,In the main trials you will be asked to rephrase something a person said. The utterance will contain a word that is <i>relative</i> and your task is to figure out what it is relative to. <br /> <br /> For example: <br />,1,1585606188314,3,The Empire State Building is tall relative to other,NA,1,NA,NA,NA,"buildings, skyscrapers, houses, constructions (choose one)",comp_class_warmup,NA,NA
2054,NA,dog,NA,NA,32,warmup/doberman.png,chihuahua,This is a,no,1,dogs1,susan,NA,doberman,yes,Please label the pictures below.,NA,NA,NA,29,NA,good,warmup/chihuahua.jpg,dog,graduated_college,NA,english,male,NA,dogs,NA,1,1585606188314,1,NA,This is a,1,NA,These are both,dog,NA,warmup1,NA,NA
2054,NA,chihuahua,NA,NA,32,warmup/doberman.png,chihuahua,This is a,no,1,dogs1,susan,NA,doberman,yes,Please label the pictures below.,NA,NA,NA,29,NA,good,warmup/chihuahua.jpg,dogs,graduated_college,NA,english,male,NA,dogs,NA,1,1585606188314,2,NA,This is a,1,NA,These are both,doberman,NA,warmup1,NA,NA
2054,NA,tree,NA,NA,32,warmup/bonsai.jpg,redwood or sequoia (choose one),This is a,no,1,trees,susan,NA,bonsai,yes,Please label the pictures below.,NA,NA,NA,29,NA,good,warmup/sequoia.png,tree,graduated_college,NA,english,male,NA,trees,NA,2,1585606188314,1,NA,This is a,1,NA,These are both,plant,NA,warmup1,NA,NA
2054,NA,redwood,NA,NA,32,warmup/bonsai.jpg,redwood or sequoia (choose one),This is a,no,1,trees,susan,NA,bonsai,yes,Please label the pictures below.,NA,NA,NA,29,NA,good,warmup/sequoia.png,trees,graduated_college,NA,english,male,NA,trees,NA,2,1585606188314,2,NA,This is a,1,NA,These are both,bonsai,NA,warmup1,NA,NA
2054,NA,pupp,NA,NA,32,warmup/great-dane.jpg,pug,This is a,no,1,dogs2,susan,NA,great dane,yes,Please label the pictures below.,NA,NA,NA,29,NA,good,warmup/pug.jpg,dogs,graduated_college,NA,english,male,NA,dogs,NA,3,1585606188314,1,NA,This is a,1,NA,These are both,dog,NA,warmup1,NA,NA
2054,NA,pug,NA,NA,32,warmup/great-dane.jpg,pug,This is a,no,1,dogs2,susan,NA,great dane,yes,Please label the pictures below.,NA,NA,NA,29,NA,good,warmup/pug.jpg,dogs,graduated_college,NA,english,male,NA,dogs,NA,3,1585606188314,2,NA,This is a,1,NA,These are both,great dane,NA,warmup1,NA,NA
2054,What do you think is it big relative to?,NA,images/doberman.png,images/dog-parade-basic.png,32,NA,NA,NA,no,1,dogs1,susan,NA,NA,yes,Your friend goes ahead of you. You see your friend in the distance:,NA,predicate,doberman,29,man,good,NA,NA,graduated_college,NA,english,male,235505,NA,You and your friend are at an animal training ground and you see the following:,1,1585606188314,NA,It is big relative to other,NA,1,service animal,NA,NA,NA,custom_main_text1,big,Your friend says: <br/><b>That service animal is a big doberman..</b>
2054,What do you think is it small  relative to?,NA,images/pug.png,images/dog-parade-basic2.png,32,NA,NA,NA,no,1,dogs2,susan,NA,NA,yes,Your friend goes ahead of you. You see your friend in the distance:,NA,subject,pug,29,pug,good,NA,NA,graduated_college,NA,english,male,7373,NA,You and your friend are at a pet show and you see the following:,2,1585606188314,NA,It is small  relative to other,NA,1,prize-winner,NA,NA,NA,custom_main_text1,small,Your friend says: <br/><b>That small pug is a prize-winner.</b>
2054,What do you think is it small  relative to?,NA,images/bonsai_stick.png,images/tree-parade-basic.png,32,NA,NA,NA,no,1,trees,susan,NA,NA,yes,Your friend goes ahead of you. You see your friend in the distance:,NA,predicate,bonsai,29,man,good,NA,NA,graduated_college,NA,english,male,9503,NA,You and your friend walk to their cabin in a park for the first time. You want to memorize the path and you see the following:,3,1585606188314,NA,It is small  relative to other,NA,1,landmark,NA,NA,NA,custom_main_text1,small,Your friend says: <br/><b>That landmark is a small bonsai.</b>
2054,NA,sun,NA,NA,32,warmup/sunflower.png,dandelion,This is a,no,1,flowers,susan,NA,sunflower,yes,Please label the pictures below.,NA,NA,NA,29,NA,good,warmup/dandelion.jpg,flowers,graduated_college,NA,english,male,NA,flowers,NA,1,1585606188314,1,NA,This is a,1,NA,These are both,flower,NA,warmup2,NA,NA
2054,NA,dandelion,NA,NA,32,warmup/sunflower.png,dandelion,This is a,no,1,flowers,susan,NA,sunflower,yes,Please label the pictures below.,NA,NA,NA,29,NA,good,warmup/dandelion.jpg,flowers,graduated_college,NA,english,male,NA,flowers,NA,1,1585606188314,2,NA,This is a,1,NA,These are both,sun flower,NA,warmup2,NA,NA
2054,NA,dandelion,NA,NA,32,warmup/sunflower.png,dandelion,This is a,no,1,flowers,susan,NA,sunflower,yes,Please label the pictures below.,NA,NA,NA,29,NA,good,warmup/dandelion.jpg,flowers,graduated_college,NA,english,male,NA,flowers,NA,1,1585606188314,3,NA,This is a,1,NA,These are both,sunflower,NA,warmup2,NA,NA
2054,NA,kingfisher,NA,NA,32,warmup/eagle.jpg,hummingbird,This is a,no,1,birds,susan,NA,eagle,yes,Please label the pictures below.,NA,NA,NA,29,NA,good,warmup/colibri.jpg,birds,graduated_college,NA,english,male,NA,birds,NA,2,1585606188314,1,NA,This is an,1,NA,These are both,eagle,NA,warmup2,NA,NA
2054,NA,hummingbird,NA,NA,32,warmup/eagle.jpg,hummingbird,This is a,no,1,birds,susan,NA,eagle,yes,Please label the pictures below.,NA,NA,NA,29,NA,good,warmup/colibri.jpg,birds,graduated_college,NA,english,male,NA,birds,NA,2,1585606188314,2,NA,This is an,1,NA,These are both,eagle,NA,warmup2,NA,NA
2054,What do you think is it big  relative to?,NA,images/eagle.png,images/bird-parade-basic.png,32,NA,NA,NA,no,1,birds,susan,NA,NA,yes,Your friend goes ahead of you. You see your friend in the distance:,NA,subject,eagle,29,man,good,NA,NA,graduated_college,NA,english,male,17133,NA,You visit your friend who works at an animal shelter and you see the following:,1,1585606188314,NA,It is big  relative to other,NA,1,rescue,NA,NA,NA,custom_main_text2,big,Your friend says: <br/><b>That big eagle is a rescue.</b>
2054,What do you think is it small  relative to?,NA,images/dandelion.png,images/flower-parade-basic.png,32,NA,NA,NA,no,1,flowers,susan,NA,NA,yes,Your friend goes ahead of you. You see your friend in the distance:,NA,subject,dandelion,29,plant,good,NA,NA,graduated_college,NA,english,male,10700,NA,You and your friend are at their garden and you see the following:,2,1585606188314,NA,It is small  relative to other,NA,1,gift,NA,NA,NA,custom_main_text2,small,Your friend says: <br/><b>That small dandelion is a gift.</b>
2053,<i>What do you think Speaker A meant? </i>,NA,NA,NA,32,NA,NA,NA,no,1,NA,barbara,1,NA,yes,NA,"<b> Speaker A: ""The Empire State Building is tall.""</b>",NA,NA,45,buildings,thanks,NA,NA,graduated_high_school,comp_class_warmup,English,male,NA,NA,In the main trials you will be asked to rephrase something a person said. The utterance will contain a word that is <i>relative</i> and your task is to figure out what it is relative to. <br /> <br /> For example: <br />,1,1585582195713,1,The Empire State Building is tall relative to other,NA,2,NA,NA,NA,"buildings, skyscrapers, houses, constructions (choose one)",comp_class_warmup,NA,NA
2053,NA,redwood,NA,NA,32,warmup/bonsai.jpg,redwood or sequoia (choose one),This is a,no,1,trees,barbara,NA,bonsai,yes,Please label the pictures below.,NA,NA,NA,45,NA,thanks,warmup/sequoia.png,trees,graduated_high_school,NA,English,male,NA,trees,NA,1,1585582195713,1,NA,This is a,2,NA,These are both,bonsai,NA,warmup1,NA,NA
2053,NA,chihuaha,NA,NA,32,warmup/doberman.png,chihuahua,This is a,no,1,dogs1,barbara,NA,doberman,yes,Please label the pictures below.,NA,NA,NA,45,NA,thanks,warmup/chihuahua.jpg,dogs,graduated_high_school,NA,English,male,NA,dogs,NA,2,1585582195713,1,NA,This is a,2,NA,These are both,doberman,NA,warmup1,NA,NA
2053,NA,chihuahua,NA,NA,32,warmup/doberman.png,chihuahua,This is a,no,1,dogs1,barbara,NA,doberman,yes,Please label the pictures below.,NA,NA,NA,45,NA,thanks,warmup/chihuahua.jpg,dogs,graduated_high_school,NA,English,male,NA,dogs,NA,2,1585582195713,2,NA,This is a,2,NA,These are both,doberman,NA,warmup1,NA,NA
2053,NA,pug,NA,NA,32,warmup/great-dane.jpg,pug,This is a,no,1,dogs2,barbara,NA,great dane,yes,Please label the pictures below.,NA,NA,NA,45,NA,thanks,warmup/pug.jpg,dogs,graduated_high_school,NA,English,male,NA,dogs,NA,3,1585582195713,1,NA,This is a,2,NA,These are both,great dane,NA,warmup1,NA,NA
2053,What do you think is it big relative to?,NA,images/doberman.png,images/dog-parade-basic.png,32,NA,NA,NA,no,1,dogs1,barbara,NA,NA,yes,Your friend goes ahead of you. You see your friend in the distance:,NA,subject,doberman,45,dogs,thanks,NA,NA,graduated_high_school,NA,English,male,18016,NA,You and your friend are at an animal training ground and you see the following:,1,1585582195713,NA,It is big relative to other,NA,2,service animal,NA,NA,NA,custom_main_text1,big,Your friend says: <br/><b>That big doberman is a service animal.</b>
2053,What do you think is it small  relative to?,NA,images/bonsai_stick.png,images/tree-parade-basic.png,32,NA,NA,NA,no,1,trees,barbara,NA,NA,yes,Your friend goes ahead of you. You see your friend in the distance:,NA,predicate,bonsai,45,trees,thanks,NA,NA,graduated_high_school,NA,English,male,12522,NA,You and your friend walk to their cabin in a park for the first time. You want to memorize the path and you see the following:,2,1585582195713,NA,It is small  relative to other,NA,2,landmark,NA,NA,NA,custom_main_text1,small,Your friend says: <br/><b>That landmark is a small bonsai.</b>
2053,What do you think is it big  relative to?,NA,images/great-dane.png,images/dog-parade-basic2.png,32,NA,NA,NA,no,1,dogs2,barbara,NA,NA,yes,Your friend goes ahead of you. You see your friend in the distance:,NA,predicate,great dane,45,dogs,thanks,NA,NA,graduated_high_school,NA,English,male,9316,NA,You and your friend are at a pet show and you see the following:,3,1585582195713,NA,It is big  relative to other,NA,2,prize-winner,NA,NA,NA,custom_main_text1,big,Your friend says: <br/><b>That prize-winner is a big Great Dane.</b>
2053,NA,dandelion,NA,NA,32,warmup/sunflower.png,dandelion,This is a,no,1,flowers,barbara,NA,sunflower,yes,Please label the pictures below.,NA,NA,NA,45,NA,thanks,warmup/dandelion.jpg,flowers,graduated_high_school,NA,English,male,NA,flowers,NA,1,1585582195713,1,NA,This is a,2,NA,These are both,sunflower,NA,warmup2,NA,NA
2053,NA,hummingbird,NA,NA,32,warmup/eagle.jpg,hummingbird,This is a,no,1,birds,barbara,NA,eagle,yes,Please label the pictures below.,NA,NA,NA,45,NA,thanks,warmup/colibri.jpg,birds,graduated_high_school,NA,English,male,NA,birds,NA,2,1585582195713,1,NA,This is an,2,NA,These are both,eagle,NA,warmup2,NA,NA
2053,What do you think is it small  relative to?,NA,images/hummingbird.png,images/bird-parade-basic.png,32,NA,NA,NA,no,1,birds,barbara,NA,NA,yes,Your friend goes ahead of you. You see your friend in the distance:,NA,predicate,hummingbird,45,birds,thanks,NA,NA,graduated_high_school,NA,English,male,10111,NA,You visit your friend who works at an animal shelter and you see the following:,1,1585582195713,NA,It is small  relative to other,NA,2,rescue,NA,NA,NA,custom_main_text2,small,Your friend says: <br/><b>That rescue is a small hummingbird.</b>
2053,What do you think is it small  relative to?,NA,images/dandelion.png,images/flower-parade-basic.png,32,NA,NA,NA,no,1,flowers,barbara,NA,NA,yes,Your friend goes ahead of you. You see your friend in the distance:,NA,subject,dandelion,45,flowers,thanks,NA,NA,graduated_high_school,NA,English,male,9212,NA,You and your friend are at their garden and you see the following:,2,1585582195713,NA,It is small  relative to other,NA,2,gift,NA,NA,NA,custom_main_text2,small,Your friend says: <br/><b>That small dandelion is a gift.</b>
2052,<i>What do you think Speaker A meant? </i>,NA,NA,NA,32,NA,NA,NA,no,2,NA,susan,1,NA,yes,NA,"<b> Speaker A: ""The Empire State Building is tall.""</b>",NA,NA,55,buildings,thanks,NA,NA,graduated_college,comp_class_warmup,english,female,NA,NA,In the main trials you will be asked to rephrase something a person said. The utterance will contain a word that is <i>relative</i> and your task is to figure out what it is relative to. <br /> <br /> For example: <br />,1,1585581808500,1,The Empire State Building is tall relative to other,NA,1,NA,NA,NA,"buildings, skyscrapers, houses, constructions (choose one)",comp_class_warmup,NA,NA
2052,NA,dandelion,NA,NA,32,warmup/sunflower.png,dandelion,This is a,no,2,flowers,susan,NA,sunflower,yes,Please label the pictures below.,NA,NA,NA,55,NA,thanks,warmup/dandelion.jpg,flowers,graduated_college,NA,english,female,NA,flowers,NA,1,1585581808500,1,NA,This is a,1,NA,These are both,sunflower,NA,warmup1,NA,NA
2052,NA,sequoia,NA,NA,32,warmup/bonsai.jpg,redwood or sequoia (choose one),This is a,no,2,trees,susan,NA,bonsai,yes,Please label the pictures below.,NA,NA,NA,55,NA,thanks,warmup/sequoia.png,trees,graduated_college,NA,english,female,NA,trees,NA,2,1585581808500,1,NA,This is a,1,NA,These are both,bonsai,NA,warmup1,NA,NA
2052,NA,bulldog,NA,NA,32,warmup/great-dane.jpg,pug,This is a,no,2,dogs2,susan,NA,great dane,yes,Please label the pictures below.,NA,NA,NA,55,NA,thanks,warmup/pug.jpg,dogs,graduated_college,NA,english,female,NA,dogs,NA,3,1585581808500,1,NA,This is a,1,NA,These are both,great dane,NA,warmup1,NA,NA
2052,NA,pug,NA,NA,32,warmup/great-dane.jpg,pug,This is a,no,2,dogs2,susan,NA,great dane,yes,Please label the pictures below.,NA,NA,NA,55,NA,thanks,warmup/pug.jpg,dogs,graduated_college,NA,english,female,NA,dogs,NA,3,1585581808500,2,NA,This is a,1,NA,These are both,great dane,NA,warmup1,NA,NA
2052,What do you think is it small  relative to?,NA,images/bonsai_stick.png,images/tree-parade-basic.png,32,NA,NA,NA,no,2,trees,susan,NA,NA,yes,Your friend goes ahead of you. You see your friend in the distance:,NA,predicate,bonsai,55,trees,thanks,NA,NA,graduated_college,NA,english,female,28330,NA,You and your friend walk to their cabin in a park for the first time. You want to memorize the path and you see the following:,1,1585581808500,NA,It is small  relative to other,NA,1,landmark,NA,NA,NA,custom_main_text1,small,Your friend says: <br/><b>That landmark is a small bonsai.</b>
2052,What do you think is it small  relative to?,NA,images/dandelion.png,images/flower-parade-basic.png,32,NA,NA,NA,no,2,flowers,susan,NA,NA,yes,Your friend goes ahead of you. You see your friend in the distance:,NA,predicate,dandelion,55,flowers,thanks,NA,NA,graduated_college,NA,english,female,8104,NA,You and your friend are at their garden and you see the following:,2,1585581808500,NA,It is small  relative to other,NA,1,gift,NA,NA,NA,custom_main_text1,small,Your friend says: <br/><b>That gift is a small dandelion.</b>
2052,What do you think is it big  relative to?,NA,images/great-dane.png,images/dog-parade-basic2.png,32,NA,NA,NA,no,2,dogs2,susan,NA,NA,yes,Your friend goes ahead of you. You see your friend in the distance:,NA,subject,great dane,55,dogs,thanks,NA,NA,graduated_college,NA,english,female,8888,NA,You and your friend are at a pet show and you see the following:,3,1585581808500,NA,It is big  relative to other,NA,1,prize-winner,NA,NA,NA,custom_main_text1,big,Your friend says: <br/><b>That big Great Dane is a prize-winner.</b>
2052,NA,hummingbird,NA,NA,32,warmup/eagle.jpg,hummingbird,This is a,no,2,birds,susan,NA,eagle,yes,Please label the pictures below.,NA,NA,NA,55,NA,thanks,warmup/colibri.jpg,birds,graduated_college,NA,english,female,NA,birds,NA,1,1585581808500,1,NA,This is an,1,NA,These are both,eagle,NA,warmup2,NA,NA
2052,NA,chihuahua,NA,NA,32,warmup/doberman.png,chihuahua,This is a,no,2,dogs1,susan,NA,doberman,yes,Please label the pictures below.,NA,NA,NA,55,NA,thanks,warmup/chihuahua.jpg,dogs,graduated_college,NA,english,female,NA,dogs,NA,2,1585581808500,1,NA,This is a,1,NA,These are both,doberman pinscher,NA,warmup2,NA,NA
2052,NA,chihuahua,NA,NA,32,warmup/doberman.png,chihuahua,This is a,no,2,dogs1,susan,NA,doberman,yes,Please label the pictures below.,NA,NA,NA,55,NA,thanks,warmup/chihuahua.jpg,dogs,graduated_college,NA,english,female,NA,dogs,NA,2,1585581808500,2,NA,This is a,1,NA,These are both,doberman,NA,warmup2,NA,NA
2052,What do you think is it big  relative to?,NA,images/eagle.png,images/bird-parade-basic.png,32,NA,NA,NA,no,2,birds,susan,NA,NA,yes,Your friend goes ahead of you. You see your friend in the distance:,NA,predicate,eagle,55,birds,thanks,NA,NA,graduated_college,NA,english,female,11217,NA,You visit your friend who works at an animal shelter and you see the following:,1,1585581808500,NA,It is big  relative to other,NA,1,rescue,NA,NA,NA,custom_main_text2,big,Your friend says: <br/><b>That rescue is a big eagle.</b>
2052,What do you think is it big relative to?,NA,images/doberman.png,images/dog-parade-basic.png,32,NA,NA,NA,no,2,dogs1,susan,NA,NA,yes,Your friend goes ahead of you. You see your friend in the distance:,NA,subject,doberman,55,dogs,thanks,NA,NA,graduated_college,NA,english,female,6528,NA,You and your friend are at an animal training ground and you see the following:,2,1585581808500,NA,It is big relative to other,NA,1,service animal,NA,NA,NA,custom_main_text2,big,Your friend says: <br/><b>That big doberman is a service animal.</b>
2051,<i>What do you think Speaker A meant? </i>,NA,NA,NA,32,NA,NA,NA,no,2,NA,jessica,1,NA,yes,NA,"<b> Speaker A: ""The Empire State Building is tall.""</b>",NA,NA,35,empire,good,NA,NA,NA,comp_class_warmup,English,male,NA,NA,In the main trials you will be asked to rephrase something a person said. The utterance will contain a word that is <i>relative</i> and your task is to figure out what it is relative to. <br /> <br /> For example: <br />,1,1585581004496,1,The Empire State Building is tall relative to other,NA,1,NA,NA,NA,"buildings, skyscrapers, houses, constructions (choose one)",comp_class_warmup,NA,NA
2051,<i>What do you think Speaker A meant? </i>,NA,NA,NA,32,NA,NA,NA,no,2,NA,jessica,1,NA,yes,NA,"<b> Speaker A: ""The Empire State Building is tall.""</b>",NA,NA,35,empire,good,NA,NA,NA,comp_class_warmup,English,male,NA,NA,In the main trials you will be asked to rephrase something a person said. The utterance will contain a word that is <i>relative</i> and your task is to figure out what it is relative to. <br /> <br /> For example: <br />,1,1585581004496,2,The Empire State Building is tall relative to other,NA,1,NA,NA,NA,"buildings, skyscrapers, houses, constructions (choose one)",comp_class_warmup,NA,NA
2051,<i>What do you think Speaker A meant? </i>,NA,NA,NA,32,NA,NA,NA,no,2,NA,jessica,1,NA,yes,NA,"<b> Speaker A: ""The Empire State Building is tall.""</b>",NA,NA,35,empire Art Deco skyscraper,good,NA,NA,NA,comp_class_warmup,English,male,NA,NA,In the main trials you will be asked to rephrase something a person said. The utterance will contain a word that is <i>relative</i> and your task is to figure out what it is relative to. <br /> <br /> For example: <br />,1,1585581004496,3,The Empire State Building is tall relative to other,NA,1,NA,NA,NA,"buildings, skyscrapers, houses, constructions (choose one)",comp_class_warmup,NA,NA
2051,<i>What do you think Speaker A meant? </i>,NA,NA,NA,32,NA,NA,NA,no,2,NA,jessica,1,NA,yes,NA,"<b> Speaker A: ""The Empire State Building is tall.""</b>",NA,NA,35,empire Art Deco skyscraper,good,NA,NA,NA,comp_class_warmup,English,male,NA,NA,In the main trials you will be asked to rephrase something a person said. The utterance will contain a word that is <i>relative</i> and your task is to figure out what it is relative to. <br /> <br /> For example: <br />,1,1585581004496,4,The Empire State Building is tall relative to other,NA,1,NA,NA,NA,"buildings, skyscrapers, houses, constructions (choose one)",comp_class_warmup,NA,NA
2051,<i>What do you think Speaker A meant? </i>,NA,NA,NA,32,NA,NA,NA,no,2,NA,jessica,1,NA,yes,NA,"<b> Speaker A: ""The Empire State Building is tall.""</b>",NA,NA,35,skyscrapers,good,NA,NA,NA,comp_class_warmup,English,male,NA,NA,In the main trials you will be asked to rephrase something a person said. The utterance will contain a word that is <i>relative</i> and your task is to figure out what it is relative to. <br /> <br /> For example: <br />,1,1585581004496,5,The Empire State Building is tall relative to other,NA,1,NA,NA,NA,"buildings, skyscrapers, houses, constructions (choose one)",comp_class_warmup,NA,NA
2051,NA,Chihuahua,NA,NA,32,warmup/doberman.png,chihuahua,This is a,no,2,dogs1,jessica,NA,doberman,yes,Please label the pictures below.,NA,NA,NA,35,NA,good,warmup/chihuahua.jpg,germany,NA,NA,English,male,NA,dogs,NA,1,1585581004496,1,NA,This is a,1,NA,These are both,Dobermann,NA,warmup1,NA,NA
2051,NA,Chihuahua,NA,NA,32,warmup/doberman.png,chihuahua,This is a,no,2,dogs1,jessica,NA,doberman,yes,Please label the pictures below.,NA,NA,NA,35,NA,good,warmup/chihuahua.jpg,domestic dog,NA,NA,English,male,NA,dogs,NA,1,1585581004496,2,NA,This is a,1,NA,These are both,Dobermann,NA,warmup1,NA,NA
2051,NA,Chihuahua,NA,NA,32,warmup/doberman.png,chihuahua,This is a,no,2,dogs1,jessica,NA,doberman,yes,Please label the pictures below.,NA,NA,NA,35,NA,good,warmup/chihuahua.jpg,domestic dog,NA,NA,English,male,NA,dogs,NA,1,1585581004496,3,NA,This is a,1,NA,These are both,Dobermann,NA,warmup1,NA,NA
2051,NA,Chihuahua,NA,NA,32,warmup/doberman.png,chihuahua,This is a,no,2,dogs1,jessica,NA,doberman,yes,Please label the pictures below.,NA,NA,NA,35,NA,good,warmup/chihuahua.jpg,domestic dog,NA,NA,English,male,NA,dogs,NA,1,1585581004496,4,NA,This is a,1,NA,These are both,Dobermann,NA,warmup1,NA,NA
2051,NA,Chihuahua,NA,NA,32,warmup/doberman.png,chihuahua,This is a,no,2,dogs1,jessica,NA,doberman,yes,Please label the pictures below.,NA,NA,NA,35,NA,good,warmup/chihuahua.jpg,dog,NA,NA,English,male,NA,dogs,NA,1,1585581004496,5,NA,This is a,1,NA,These are both,Dobermann,NA,warmup1,NA,NA
2051,NA,chihuahua,NA,NA,32,warmup/doberman.png,chihuahua,This is a,no,2,dogs1,jessica,NA,doberman,yes,Please label the pictures below.,NA,NA,NA,35,NA,good,warmup/chihuahua.jpg,dog,NA,NA,English,male,NA,dogs,NA,1,1585581004496,6,NA,This is a,1,NA,These are both,Dobermann,NA,warmup1,NA,NA
2051,NA,chihuahua,NA,NA,32,warmup/doberman.png,chihuahua,This is a,no,2,dogs1,jessica,NA,doberman,yes,Please label the pictures below.,NA,NA,NA,35,NA,good,warmup/chihuahua.jpg,dog,NA,NA,English,male,NA,dogs,NA,1,1585581004496,7,NA,This is a,1,NA,These are both,Dobermann,NA,warmup1,NA,NA
2051,NA,chihuahua,NA,NA,32,warmup/doberman.png,chihuahua,This is a,no,2,dogs1,jessica,NA,doberman,yes,Please label the pictures below.,NA,NA,NA,35,NA,good,warmup/chihuahua.jpg,dog,NA,NA,English,male,NA,dogs,NA,1,1585581004496,8,NA,This is a,1,NA,These are both,Dobermann,NA,warmup1,NA,NA
2051,NA,chihuahua,NA,NA,32,warmup/doberman.png,chihuahua,This is a,no,2,dogs1,jessica,NA,doberman,yes,Please label the pictures below.,NA,NA,NA,35,NA,good,warmup/chihuahua.jpg,dog,NA,NA,English,male,NA,dogs,NA,1,1585581004496,9,NA,This is a,1,NA,These are both,Dobermann,NA,warmup1,NA,NA
2051,NA,chihuahua,NA,NA,32,warmup/doberman.png,chihuahua,This is a,no,2,dogs1,jessica,NA,doberman,yes,Please label the pictures below.,NA,NA,NA,35,NA,good,warmup/chihuahua.jpg,dog,NA,NA,English,male,NA,dogs,NA,1,1585581004496,10,NA,This is a,1,NA,These are both,Dobermann,NA,warmup1,NA,NA
2051,NA,chihuahua,NA,NA,32,warmup/doberman.png,chihuahua,This is a,no,2,dogs1,jessica,NA,doberman,yes,Please label the pictures below.,NA,NA,NA,35,NA,good,warmup/chihuahua.jpg,dog,NA,NA,English,male,NA,dogs,NA,1,1585581004496,11,NA,This is a,1,NA,These are both,Dobermann,NA,warmup1,NA,NA
2051,NA,chihuahua,NA,NA,32,warmup/doberman.png,chihuahua,This is a,no,2,dogs1,jessica,NA,doberman,yes,Please label the pictures below.,NA,NA,NA,35,NA,good,warmup/chihuahua.jpg,dog,NA,NA,English,male,NA,dogs,NA,1,1585581004496,12,NA,This is a,1,NA,These are both,Dobermann,NA,warmup1,NA,NA
2051,NA,dog,NA,NA,32,warmup/doberman.png,chihuahua,This is a,no,2,dogs1,jessica,NA,doberman,yes,Please label the pictures below.,NA,NA,NA,35,NA,good,warmup/chihuahua.jpg,germany,NA,NA,English,male,NA,dogs,NA,1,1585581004496,13,NA,This is a,1,NA,These are both,dog,NA,warmup1,NA,NA
2051,NA,dog,NA,NA,32,warmup/doberman.png,chihuahua,This is a,no,2,dogs1,jessica,NA,doberman,yes,Please label the pictures below.,NA,NA,NA,35,NA,good,warmup/chihuahua.jpg,germany,NA,NA,English,male,NA,dogs,NA,1,1585581004496,14,NA,This is a,1,NA,These are both,dog,NA,warmup1,NA,NA
2051,NA,dog,NA,NA,32,warmup/doberman.png,chihuahua,This is a,no,2,dogs1,jessica,NA,doberman,yes,Please label the pictures below.,NA,NA,NA,35,NA,good,warmup/chihuahua.jpg,dog,NA,NA,English,male,NA,dogs,NA,1,1585581004496,15,NA,This is a,1,NA,These are both,dog,NA,warmup1,NA,NA
2051,NA,dog,NA,NA,32,warmup/doberman.png,chihuahua,This is a,no,2,dogs1,jessica,NA,doberman,yes,Please label the pictures below.,NA,NA,NA,35,NA,good,warmup/chihuahua.jpg,dog,NA,NA,English,male,NA,dogs,NA,1,1585581004496,16,NA,This is a,1,NA,These are both,dog,NA,warmup1,NA,NA
2051,NA,dog,NA,NA,32,warmup/doberman.png,chihuahua,This is a,no,2,dogs1,jessica,NA,doberman,yes,Please label the pictures below.,NA,NA,NA,35,NA,good,warmup/chihuahua.jpg,dog,NA,NA,English,male,NA,dogs,NA,1,1585581004496,17,NA,This is a,1,NA,These are both,dog,NA,warmup1,NA,NA
2051,NA,dog,NA,NA,32,warmup/doberman.png,chihuahua,This is a,no,2,dogs1,jessica,NA,doberman,yes,Please label the pictures below.,NA,NA,NA,35,NA,good,warmup/chihuahua.jpg,dog,NA,NA,English,male,NA,dogs,NA,1,1585581004496,18,NA,This is a,1,NA,These are both,dog,NA,warmup1,NA,NA
2051,NA,dog,NA,NA,32,warmup/doberman.png,chihuahua,This is a,no,2,dogs1,jessica,NA,doberman,yes,Please label the pictures below.,NA,NA,NA,35,NA,good,warmup/chihuahua.jpg,dog,NA,NA,English,male,NA,dogs,NA,1,1585581004496,19,NA,This is a,1,NA,These are both,dog,NA,warmup1,NA,NA
2051,NA,dog,NA,NA,32,warmup/doberman.png,chihuahua,This is a,no,2,dogs1,jessica,NA,doberman,yes,Please label the pictures below.,NA,NA,NA,35,NA,good,warmup/chihuahua.jpg,dog,NA,NA,English,male,NA,dogs,NA,1,1585581004496,20,NA,This is a,1,NA,These are both,dog,NA,warmup1,NA,NA
2051,NA,dog,NA,NA,32,warmup/doberman.png,chihuahua,This is a,no,2,dogs1,jessica,NA,doberman,yes,Please label the pictures below.,NA,NA,NA,35,NA,good,warmup/chihuahua.jpg,dog,NA,NA,English,male,NA,dogs,NA,1,1585581004496,21,NA,This is a,1,NA,These are both,dog,NA,warmup1,NA,NA
2051,NA,dog,NA,NA,32,warmup/doberman.png,chihuahua,This is a,no,2,dogs1,jessica,NA,doberman,yes,Please label the pictures below.,NA,NA,NA,35,NA,good,warmup/chihuahua.jpg,dog,NA,NA,English,male,NA,dogs,NA,1,1585581004496,22,NA,This is a,1,NA,These are both,dog,NA,warmup1,NA,NA
2051,NA,dog,NA,NA,32,warmup/doberman.png,chihuahua,This is a,no,2,dogs1,jessica,NA,doberman,yes,Please label the pictures below.,NA,NA,NA,35,NA,good,warmup/chihuahua.jpg,dog,NA,NA,English,male,NA,dogs,NA,1,1585581004496,23,NA,This is a,1,NA,These are both,dog,NA,warmup1,NA,NA
2051,NA,dog,NA,NA,32,warmup/doberman.png,chihuahua,This is a,no,2,dogs1,jessica,NA,doberman,yes,Please label the pictures below.,NA,NA,NA,35,NA,good,warmup/chihuahua.jpg,dog,NA,NA,English,male,NA,dogs,NA,1,1585581004496,24,NA,This is a,1,NA,These are both,dog,NA,warmup1,NA,NA
2051,NA,dog,NA,NA,32,warmup/doberman.png,chihuahua,This is a,no,2,dogs1,jessica,NA,doberman,yes,Please label the pictures below.,NA,NA,NA,35,NA,good,warmup/chihuahua.jpg,dog,NA,NA,English,male,NA,dogs,NA,1,1585581004496,25,NA,This is a,1,NA,These are both,dog,NA,warmup1,NA,NA
2051,NA,chihuahua,NA,NA,32,warmup/doberman.png,chihuahua,This is a,no,2,dogs1,jessica,NA,doberman,yes,Please label the pictures below.,NA,NA,NA,35,NA,good,warmup/chihuahua.jpg,dog,NA,NA,English,male,NA,dogs,NA,1,1585581004496,26,NA,This is a,1,NA,These are both,doberman,NA,warmup1,NA,NA
2051,NA,chihuahua,NA,NA,32,warmup/doberman.png,chihuahua,This is a,no,2,dogs1,jessica,NA,doberman,yes,Please label the pictures below.,NA,NA,NA,35,NA,good,warmup/chihuahua.jpg,dog,NA,NA,English,male,NA,dogs,NA,1,1585581004496,27,NA,This is a,1,NA,These are both,doberman,NA,warmup1,NA,NA
2051,NA,chihuahua,NA,NA,32,warmup/doberman.png,chihuahua,This is a,no,2,dogs1,jessica,NA,doberman,yes,Please label the pictures below.,NA,NA,NA,35,NA,good,warmup/chihuahua.jpg,dog,NA,NA,English,male,NA,dogs,NA,1,1585581004496,28,NA,This is a,1,NA,These are both,doberman,NA,warmup1,NA,NA
2051,NA,chihuahua,NA,NA,32,warmup/doberman.png,chihuahua,This is a,no,2,dogs1,jessica,NA,doberman,yes,Please label the pictures below.,NA,NA,NA,35,NA,good,warmup/chihuahua.jpg,dog,NA,NA,English,male,NA,dogs,NA,1,1585581004496,29,NA,This is a,1,NA,These are both,doberman,NA,warmup1,NA,NA
2051,NA,chihuahua,NA,NA,32,warmup/doberman.png,chihuahua,This is a,no,2,dogs1,jessica,NA,doberman,yes,Please label the pictures below.,NA,NA,NA,35,NA,good,warmup/chihuahua.jpg,dog,NA,NA,English,male,NA,dogs,NA,1,1585581004496,30,NA,This is a,1,NA,These are both,doberman,NA,warmup1,NA,NA
2051,NA,chihuahua,NA,NA,32,warmup/doberman.png,chihuahua,This is a,no,2,dogs1,jessica,NA,doberman,yes,Please label the pictures below.,NA,NA,NA,35,NA,good,warmup/chihuahua.jpg,dog,NA,NA,English,male,NA,dogs,NA,1,1585581004496,31,NA,This is a,1,NA,These are both,doberman,NA,warmup1,NA,NA
2051,NA,chihuahua,NA,NA,32,warmup/doberman.png,chihuahua,This is a,no,2,dogs1,jessica,NA,doberman,yes,Please label the pictures below.,NA,NA,NA,35,NA,good,warmup/chihuahua.jpg,dog,NA,NA,English,male,NA,dogs,NA,1,1585581004496,32,NA,This is a,1,NA,These are both,doberman,NA,warmup1,NA,NA
2051,NA,chihuahua,NA,NA,32,warmup/doberman.png,chihuahua,This is a,no,2,dogs1,jessica,NA,doberman,yes,Please label the pictures below.,NA,NA,NA,35,NA,good,warmup/chihuahua.jpg,dog,NA,NA,English,male,NA,dogs,NA,1,1585581004496,33,NA,This is a,1,NA,These are both,doberman,NA,warmup1,NA,NA
2051,NA,chihuahua,NA,NA,32,warmup/doberman.png,chihuahua,This is a,no,2,dogs1,jessica,NA,doberman,yes,Please label the pictures below.,NA,NA,NA,35,NA,good,warmup/chihuahua.jpg,dogs,NA,NA,English,male,NA,dogs,NA,1,1585581004496,34,NA,This is a,1,NA,These are both,doberman,NA,warmup1,NA,NA
2051,NA,seqoia,NA,NA,32,warmup/bonsai.jpg,redwood or sequoia (choose one),This is a,no,2,trees,jessica,NA,bonsai,yes,Please label the pictures below.,NA,NA,NA,35,NA,good,warmup/sequoia.png,trees,NA,NA,English,male,NA,trees,NA,2,1585581004496,1,NA,This is a,1,NA,These are both,houseplant,NA,warmup1,NA,NA
2051,NA,sequoia,NA,NA,32,warmup/bonsai.jpg,redwood or sequoia (choose one),This is a,no,2,trees,jessica,NA,bonsai,yes,Please label the pictures below.,NA,NA,NA,35,NA,good,warmup/sequoia.png,trees,NA,NA,English,male,NA,trees,NA,2,1585581004496,2,NA,This is a,1,NA,These are both,bonsai,NA,warmup1,NA,NA
2051,NA,dog,NA,NA,32,warmup/great-dane.jpg,pug,This is a,no,2,dogs2,jessica,NA,great dane,yes,Please label the pictures below.,NA,NA,NA,35,NA,good,warmup/pug.jpg,dogs,NA,NA,English,male,NA,dogs,NA,3,1585581004496,1,NA,This is a,1,NA,These are both,dog,NA,warmup1,NA,NA
2051,NA,pug,NA,NA,32,warmup/great-dane.jpg,pug,This is a,no,2,dogs2,jessica,NA,great dane,yes,Please label the pictures below.,NA,NA,NA,35,NA,good,warmup/pug.jpg,dogs,NA,NA,English,male,NA,dogs,NA,3,1585581004496,2,NA,This is a,1,NA,These are both,great dane,NA,warmup1,NA,NA
2051,What do you think is it small  relative to?,NA,images/bonsai_stick.png,images/tree-parade-basic.png,32,NA,NA,NA,no,2,trees,jessica,NA,NA,yes,Your friend goes ahead of you. You see your friend in the distance:,NA,subject,bonsai,35,bonsai,good,NA,NA,NA,NA,English,male,13008,NA,You and your friend walk to their cabin in a park for the first time. You want to memorize the path and you see the following:,1,1585581004496,NA,It is small  relative to other,NA,1,landmark,NA,NA,NA,custom_main_text1,small,Your friend says: <br/><b>That small bonsai is a landmark.</b>
2051,What do you think is it small relative to?,NA,images/chihuahua.png,images/dog-parade-basic.png,32,NA,NA,NA,no,2,dogs1,jessica,NA,NA,yes,Your friend goes ahead of you. You see your friend in the distance:,NA,predicate,chihuahua,35,chihuahua,good,NA,NA,NA,NA,English,male,19479,NA,You and your friend are at an animal training ground and you see the following:,2,1585581004496,NA,It is small relative to other,NA,1,service animal,NA,NA,NA,custom_main_text1,small,Your friend says: <br/><b>That service animal is a small chihuahua.</b>
2051,What do you think is it big  relative to?,NA,images/great-dane.png,images/dog-parade-basic2.png,32,NA,NA,NA,no,2,dogs2,jessica,NA,NA,yes,Your friend goes ahead of you. You see your friend in the distance:,NA,predicate,great dane,35,dane,good,NA,NA,NA,NA,English,male,16854,NA,You and your friend are at a pet show and you see the following:,3,1585581004496,NA,It is big  relative to other,NA,1,prize-winner,NA,NA,NA,custom_main_text1,big,Your friend says: <br/><b>That prize-winner is a big Great Dane.</b>
2051,NA,lab book,NA,NA,32,warmup/eagle.jpg,hummingbird,This is a,no,2,birds,jessica,NA,eagle,yes,Please label the pictures below.,NA,NA,NA,35,NA,good,warmup/colibri.jpg,birts,NA,NA,English,male,NA,birds,NA,1,1585581004496,1,NA,This is an,1,NA,These are both,eagle,NA,warmup2,NA,NA
2051,NA,hummingbird,NA,NA,32,warmup/eagle.jpg,hummingbird,This is a,no,2,birds,jessica,NA,eagle,yes,Please label the pictures below.,NA,NA,NA,35,NA,good,warmup/colibri.jpg,birds,NA,NA,English,male,NA,birds,NA,1,1585581004496,2,NA,This is an,1,NA,These are both,eagle,NA,warmup2,NA,NA
2051,NA,sunflower,NA,NA,32,warmup/sunflower.png,dandelion,This is a,no,2,flowers,jessica,NA,sunflower,yes,Please label the pictures below.,NA,NA,NA,35,NA,good,warmup/dandelion.jpg,flowers,NA,NA,English,male,NA,flowers,NA,2,1585581004496,1,NA,This is a,1,NA,These are both,sunflower,NA,warmup2,NA,NA
2051,NA,dandelion,NA,NA,32,warmup/sunflower.png,dandelion,This is a,no,2,flowers,jessica,NA,sunflower,yes,Please label the pictures below.,NA,NA,NA,35,NA,good,warmup/dandelion.jpg,flowers,NA,NA,English,male,NA,flowers,NA,2,1585581004496,2,NA,This is a,1,NA,These are both,sunflower,NA,warmup2,NA,NA
2051,What do you think is it big  relative to?,NA,images/sunflower.png,images/flower-parade-basic.png,32,NA,NA,NA,no,2,flowers,jessica,NA,NA,yes,Your friend goes ahead of you. You see your friend in the distance:,NA,subject,sunflower,35,sunflower,good,NA,NA,NA,NA,English,male,16620,NA,You and your friend are at their garden and you see the following:,1,1585581004496,NA,It is big  relative to other,NA,1,gift,NA,NA,NA,custom_main_text2,big,Your friend says: <br/><b>That big sunflower is a gift.</b>
2051,What do you think is it small  relative to?,NA,images/hummingbird.png,images/bird-parade-basic.png,32,NA,NA,NA,no,2,birds,jessica,NA,NA,yes,Your friend goes ahead of you. You see your friend in the distance:,NA,subject,hummingbird,35,hummingbird,good,NA,NA,NA,NA,English,male,15940,NA,You visit your friend who works at an animal shelter and you see the following:,2,1585581004496,NA,It is small  relative to other,NA,1,rescue,NA,NA,NA,custom_main_text2,small,Your friend says: <br/><b>That small hummingbird is a rescue.</b>
2050,<i>What do you think Speaker A meant? </i>,NA,NA,NA,32,NA,NA,NA,no,2,NA,jennifer,1,NA,yes,NA,"<b> Speaker A: ""The Empire State Building is tall.""</b>",NA,NA,28,yes\nyes,good,NA,NA,graduated_college,comp_class_warmup,English,male,NA,NA,In the main trials you will be asked to rephrase something a person said. The utterance will contain a word that is <i>relative</i> and your task is to figure out what it is relative to. <br /> <br /> For example: <br />,1,1585581436540,1,The Empire State Building is tall relative to other,NA,1.5,NA,NA,NA,"buildings, skyscrapers, houses, constructions (choose one)",comp_class_warmup,NA,NA
2050,<i>What do you think Speaker A meant? </i>,NA,NA,NA,32,NA,NA,NA,no,2,NA,jennifer,1,NA,yes,NA,"<b> Speaker A: ""The Empire State Building is tall.""</b>",NA,NA,28,building,good,NA,NA,graduated_college,comp_class_warmup,English,male,NA,NA,In the main trials you will be asked to rephrase something a person said. The utterance will contain a word that is <i>relative</i> and your task is to figure out what it is relative to. <br /> <br /> For example: <br />,1,1585581436540,2,The Empire State Building is tall relative to other,NA,1.5,NA,NA,NA,"buildings, skyscrapers, houses, constructions (choose one)",comp_class_warmup,NA,NA
2050,NA,flowers,NA,NA,32,warmup/sunflower.png,dandelion,This is a,no,2,flowers,jennifer,NA,sunflower,yes,Please label the pictures below.,NA,NA,NA,28,NA,good,warmup/dandelion.jpg,flower,graduated_college,NA,English,male,NA,flowers,NA,1,1585581436540,1,NA,This is a,1.5,NA,These are both,flower,NA,warmup1,NA,NA
2050,NA,dandelion,NA,NA,32,warmup/sunflower.png,dandelion,This is a,no,2,flowers,jennifer,NA,sunflower,yes,Please label the pictures below.,NA,NA,NA,28,NA,good,warmup/dandelion.jpg,flowers,graduated_college,NA,English,male,NA,flowers,NA,1,1585581436540,2,NA,This is a,1.5,NA,These are both,sunflower,NA,warmup1,NA,NA
2050,NA,tree,NA,NA,32,warmup/bonsai.jpg,redwood or sequoia (choose one),This is a,no,2,trees,jennifer,NA,bonsai,yes,Please label the pictures below.,NA,NA,NA,28,NA,good,warmup/sequoia.png,tress,graduated_college,NA,English,male,NA,trees,NA,2,1585581436540,1,NA,This is a,1.5,NA,These are both,plant,NA,warmup1,NA,NA
2050,NA,redwood,NA,NA,32,warmup/bonsai.jpg,redwood or sequoia (choose one),This is a,no,2,trees,jennifer,NA,bonsai,yes,Please label the pictures below.,NA,NA,NA,28,NA,good,warmup/sequoia.png,trees,graduated_college,NA,English,male,NA,trees,NA,2,1585581436540,2,NA,This is a,1.5,NA,These are both,bonsai,NA,warmup1,NA,NA
2050,NA,dog,NA,NA,32,warmup/great-dane.jpg,pug,This is a,no,2,dogs2,jennifer,NA,great dane,yes,Please label the pictures below.,NA,NA,NA,28,NA,good,warmup/pug.jpg,dogs,graduated_college,NA,English,male,NA,dogs,NA,3,1585581436540,1,NA,This is a,1.5,NA,These are both,dog,NA,warmup1,NA,NA
2050,NA,pug,NA,NA,32,warmup/great-dane.jpg,pug,This is a,no,2,dogs2,jennifer,NA,great dane,yes,Please label the pictures below.,NA,NA,NA,28,NA,good,warmup/pug.jpg,dogs,graduated_college,NA,English,male,NA,dogs,NA,3,1585581436540,2,NA,This is a,1.5,NA,These are both,great dane,NA,warmup1,NA,NA
2050,What do you think is it small  relative to?,NA,images/bonsai_stick.png,images/tree-parade-basic.png,32,NA,NA,NA,no,2,trees,jennifer,NA,NA,yes,Your friend goes ahead of you. You see your friend in the distance:,NA,predicate,bonsai,28,little,good,NA,NA,graduated_college,NA,English,male,19521,NA,You and your friend walk to their cabin in a park for the first time. You want to memorize the path and you see the following:,1,1585581436540,NA,It is small  relative to other,NA,1.5,landmark,NA,NA,NA,custom_main_text1,small,Your friend says: <br/><b>That landmark is a small bonsai.</b>
2050,What do you think is it big  relative to?,NA,images/great-dane.png,images/dog-parade-basic2.png,32,NA,NA,NA,no,2,dogs2,jennifer,NA,NA,yes,Your friend goes ahead of you. You see your friend in the distance:,NA,predicate,great dane,28,winner,good,NA,NA,graduated_college,NA,English,male,29982,NA,You and your friend are at a pet show and you see the following:,2,1585581436540,NA,It is big  relative to other,NA,1.5,prize-winner,NA,NA,NA,custom_main_text1,big,Your friend says: <br/><b>That prize-winner is a big Great Dane.</b>
2050,What do you think is it big  relative to?,NA,images/sunflower.png,images/flower-parade-basic.png,32,NA,NA,NA,no,2,flowers,jennifer,NA,NA,yes,Your friend goes ahead of you. You see your friend in the distance:,NA,predicate,sunflower,28,sunflower,good,NA,NA,graduated_college,NA,English,male,20736,NA,You and your friend are at their garden and you see the following:,3,1585581436540,NA,It is big  relative to other,NA,1.5,gift,NA,NA,NA,custom_main_text1,big,Your friend says: <br/><b>That gift is a big sunflower.</b>
2050,NA,: desenho de cachorro chihuahua\nSearch Results\nWeb results\n: desenho de cachorro chihuahua\nSearch Results\nWeb results\ndog,NA,NA,32,warmup/doberman.png,chihuahua,This is a,no,2,dogs1,jennifer,NA,doberman,yes,Please label the pictures below.,NA,NA,NA,28,NA,good,warmup/chihuahua.jpg,dogs,graduated_college,NA,English,male,NA,dogs,NA,1,1585581436540,1,NA,This is a,1.5,NA,These are both,dabber,NA,warmup2,NA,NA
2050,NA,chihuahua,NA,NA,32,warmup/doberman.png,chihuahua,This is a,no,2,dogs1,jennifer,NA,doberman,yes,Please label the pictures below.,NA,NA,NA,28,NA,good,warmup/chihuahua.jpg,dogs,graduated_college,NA,English,male,NA,dogs,NA,1,1585581436540,2,NA,This is a,1.5,NA,These are both,doberman,NA,warmup2,NA,NA
2050,NA,humming,NA,NA,32,warmup/eagle.jpg,hummingbird,This is a,no,2,birds,jennifer,NA,eagle,yes,Please label the pictures below.,NA,NA,NA,28,NA,good,warmup/colibri.jpg,birds,graduated_college,NA,English,male,NA,birds,NA,2,1585581436540,1,NA,This is an,1.5,NA,These are both,eagle,NA,warmup2,NA,NA
