submission_id,question,response1,sentence_left,context_picture,experiment_id,picture2,correct1,question1,problems,enjoyment,item,botresponse,correct2,pic_spec,understand,text,age,response,comments,ref_spec,picture1,response3,education,target_size,languages,sex,RT,correct3,context,trial_number,startTime,attempts,question3,fairprice,question2,response2,trial_name
419,NA,swordfish,NA,NA,9,warmup/goldfish.png,swordfish,This is a,no,2,fish,Patricia,goldfish,NA,yes,Please label the pictures below.,49,NA,Glad it wasn't case sensitive.,NA,warmup/swordfish.jpg,fist,some_college,NA,english,female,NA,fish,NA,1,1566831912324,1,This is a,1,These are both,goldfish,warmup1
419,NA,swordfish,NA,NA,9,warmup/goldfish.png,swordfish,This is a,no,2,fish,Patricia,goldfish,NA,yes,Please label the pictures below.,49,NA,Glad it wasn't case sensitive.,NA,warmup/swordfish.jpg,fish,some_college,NA,english,female,NA,fish,NA,1,1566831912324,2,This is a,1,These are both,goldfish,warmup1
419,NA,chihuahua,NA,NA,9,warmup/doberman.png,chihuahua,This is a,no,2,dogs,Patricia,doberman,NA,yes,Please label the pictures below.,49,NA,Glad it wasn't case sensitive.,NA,warmup/chihuahua.jpg,dogs,some_college,NA,english,female,NA,dogs,NA,2,1566831912324,1,This is a,1,These are both,doberman,warmup1
419,NA,hummingbird,NA,NA,9,warmup/eagle.jpg,hummingbird,This is a,no,2,birds,Patricia,eagle,NA,yes,Please label the pictures below.,49,NA,Glad it wasn't case sensitive.,NA,warmup/colibri.jpg,birds,some_college,NA,english,female,NA,birds,NA,3,1566831912324,1,This is an,1,These are both,eagle,warmup1
419,Please rephrase your friend's comment.,NA,It is small relative to other,images/bird-parade-hummingbird.png,9,NA,NA,NA,no,2,birds,Patricia,NA,1,yes,Your friend points to another member of the group which you cannot see and says: <br/><b> That one is small.</b>,49,birds,Glad it wasn't case sensitive.,1,NA,NA,some_college,small,english,female,NA,NA,You and your friend see the following:,1,1566831912324,NA,NA,1,NA,NA,custom_main_text1
419,Please rephrase your friend's comment.,NA,It is small relative to other,images/fish-parade-goldfish.png,9,NA,NA,NA,no,2,fish,Patricia,NA,1,yes,Your friend points to another member of the group which you cannot see and says: <br/><b>That goldfish is small.</b>,49,fish,Glad it wasn't case sensitive.,0,NA,NA,some_college,small,english,female,NA,NA,You and your friend see the following:,2,1566831912324,NA,NA,1,NA,NA,custom_main_text1
419,Please rephrase your friend's comment.,NA,It is big relative to other,images/dog-parade-basic.png,9,NA,NA,NA,no,2,dogs1,Patricia,NA,0,yes,Your friend points to another member of the group which you cannot see and says: <br/><b>That one is big.</b>,49,dogs,Glad it wasn't case sensitive.,1,NA,NA,some_college,big,english,female,NA,NA,You and your friend see the following:,3,1566831912324,NA,NA,1,NA,NA,custom_main_text1
419,NA,pine tree,NA,NA,9,warmup/bonsai.jpg,redwood|sequoia,This is a,no,2,trees,Patricia,bonsai,NA,yes,Please label the pictures below.,49,NA,Glad it wasn't case sensitive.,NA,warmup/sequoia.jpg,trees,some_college,NA,english,female,NA,trees,NA,1,1566831912324,1,This is a,1,These are both,bonsai tree,warmup2
419,NA,redwood,NA,NA,9,warmup/bonsai.jpg,redwood|sequoia,This is a,no,2,trees,Patricia,bonsai,NA,yes,Please label the pictures below.,49,NA,Glad it wasn't case sensitive.,NA,warmup/sequoia.jpg,trees,some_college,NA,english,female,NA,trees,NA,1,1566831912324,2,This is a,1,These are both,bonsai,warmup2
419,NA,pug,NA,NA,9,warmup/great-dane.jpg,pug,This is a,no,2,dogs,Patricia,great dane,NA,yes,Please label the pictures below.,49,NA,Glad it wasn't case sensitive.,NA,warmup/pug.jpg,dogs,some_college,NA,english,female,NA,dogs,NA,2,1566831912324,1,This is a,1,These are both,hound,warmup2
419,NA,pug,NA,NA,9,warmup/great-dane.jpg,pug,This is a,no,2,dogs,Patricia,great dane,NA,yes,Please label the pictures below.,49,NA,Glad it wasn't case sensitive.,NA,warmup/pug.jpg,dogs,some_college,NA,english,female,NA,dogs,NA,2,1566831912324,2,This is a,1,These are both,great dane,warmup2
419,NA,dandelion,NA,NA,9,warmup/sunflower.png,dandelion,This is a,no,2,flowers,Patricia,sunflower,NA,yes,Please label the pictures below.,49,NA,Glad it wasn't case sensitive.,NA,warmup/dandelion.jpg,flowers,some_college,NA,english,female,NA,flowers,NA,3,1566831912324,1,This is a,1,These are both,sunflower,warmup2
419,Please rephrase your friend's comment.,NA,It is big relative to other,images/dog-parade-basic2.png,9,NA,NA,NA,no,2,dogs2,Patricia,NA,0,yes,Your friend points to another member of the group which you cannot see and says: <br/><b>That great dane is big.</b>,49,dogs,Glad it wasn't case sensitive.,0,NA,NA,some_college,big,english,female,NA,NA,You and your friend see the following:,1,1566831912324,NA,NA,1,NA,NA,custom_main_text2
419,Please rephrase your friend's comment.,NA,It is small relative to other,images/tree-parade-bonsai.png,9,NA,NA,NA,no,2,trees,Patricia,NA,1,yes,Your friend points to another member of the group which you cannot see and says: <br/><b>That bonsai is small.</b>,49,trees,Glad it wasn't case sensitive.,0,NA,NA,some_college,small,english,female,NA,NA,You and your friend see the following:,2,1566831912324,NA,NA,1,NA,NA,custom_main_text2
419,Please rephrase your friend's comment.,NA,It is big relative to other,images/flower-parade-basic.png,9,NA,NA,NA,no,2,flowers,Patricia,NA,0,yes,Your friend points to another member of the group which you cannot see and says: <br/><b>That one is big.</b>,49,flowers,Glad it wasn't case sensitive.,1,NA,NA,some_college,big,english,female,NA,NA,You and your friend see the following:,3,1566831912324,NA,NA,1,NA,NA,custom_main_text2
411,NA,boxer,NA,NA,9,warmup/great-dane.jpg,pug,This is a,no,1,dogs,jessica,great dane,NA,NA,Please label the pictures below.,25,NA,awesome,NA,warmup/pug.jpg,dogs,graduated_college,NA,english,male,NA,dogs,NA,1,1566831088896,1,This is a,1,These are both,bull dog,warmup1
411,NA,pug,NA,NA,9,warmup/great-dane.jpg,pug,This is a,no,1,dogs,jessica,great dane,NA,NA,Please label the pictures below.,25,NA,awesome,NA,warmup/pug.jpg,dogs,graduated_college,NA,english,male,NA,dogs,NA,1,1566831088896,2,This is a,1,These are both,great dane,warmup1
411,NA,Miniature Pinscher,NA,NA,9,warmup/doberman.png,chihuahua,This is a,no,1,dogs,jessica,doberman,NA,NA,Please label the pictures below.,25,NA,awesome,NA,warmup/chihuahua.jpg,dogs,graduated_college,NA,english,male,NA,dogs,NA,2,1566831088896,1,This is a,1,These are both,doberman,warmup1
411,NA,chihuahua,NA,NA,9,warmup/doberman.png,chihuahua,This is a,no,1,dogs,jessica,doberman,NA,NA,Please label the pictures below.,25,NA,awesome,NA,warmup/chihuahua.jpg,dogs,graduated_college,NA,english,male,NA,dogs,NA,2,1566831088896,2,This is a,1,These are both,doberman,warmup1
411,NA,vermont,NA,NA,9,warmup/eagle.jpg,hummingbird,This is a,no,1,birds,jessica,eagle,NA,NA,Please label the pictures below.,25,NA,awesome,NA,warmup/colibri.jpg,birds,graduated_college,NA,english,male,NA,birds,NA,3,1566831088896,1,This is an,1,These are both,eagle,warmup1
411,NA,hummingbird,NA,NA,9,warmup/eagle.jpg,hummingbird,This is a,no,1,birds,jessica,eagle,NA,NA,Please label the pictures below.,25,NA,awesome,NA,warmup/colibri.jpg,birds,graduated_college,NA,english,male,NA,birds,NA,3,1566831088896,2,This is an,1,These are both,eagle,warmup1
411,Please rephrase your friend's comment.,NA,It is small relative to other,images/bird-parade-basic.png,9,NA,NA,NA,no,1,birds,jessica,NA,0,NA,Your friend points to another member of the group which you cannot see and says: <br/><b> That one is small.</b>,25,birds,awesome,1,NA,NA,graduated_college,small,english,male,NA,NA,You and your friend see the following:,1,1566831088896,NA,NA,1,NA,NA,custom_main_text1
411,Please rephrase your friend's comment.,NA,It is big relative to other,images/dog-parade-basic2.png,9,NA,NA,NA,no,1,dogs2,jessica,NA,0,NA,Your friend points to another member of the group which you cannot see and says: <br/><b>That great dane is big.</b>,25,dogs,awesome,0,NA,NA,graduated_college,big,english,male,NA,NA,You and your friend see the following:,2,1566831088896,NA,NA,1,NA,NA,custom_main_text1
411,Please rephrase your friend's comment.,NA,It is big relative to other,images/dog-parade-basic.png,9,NA,NA,NA,no,1,dogs1,jessica,NA,0,NA,Your friend points to another member of the group which you cannot see and says: <br/><b>That doberman is big.</b>,25,dogs,awesome,0,NA,NA,graduated_college,big,english,male,NA,NA,You and your friend see the following:,3,1566831088896,NA,NA,1,NA,NA,custom_main_text1
411,NA,shark,NA,NA,9,warmup/goldfish.png,swordfish,This is a,no,1,fish,jessica,goldfish,NA,NA,Please label the pictures below.,25,NA,awesome,NA,warmup/swordfish.jpg,fish,graduated_college,NA,english,male,NA,fish,NA,1,1566831088896,1,This is a,1,These are both,sea fish,warmup2
411,NA,swordfish,NA,NA,9,warmup/goldfish.png,swordfish,This is a,no,1,fish,jessica,goldfish,NA,NA,Please label the pictures below.,25,NA,awesome,NA,warmup/swordfish.jpg,fish,graduated_college,NA,english,male,NA,fish,NA,1,1566831088896,2,This is a,1,These are both,goldfish,warmup2
411,NA,tree,NA,NA,9,warmup/bonsai.jpg,redwood|sequoia,This is a,no,1,trees,jessica,bonsai,NA,NA,Please label the pictures below.,25,NA,awesome,NA,warmup/sequoia.jpg,tree,graduated_college,NA,english,male,NA,trees,NA,2,1566831088896,1,This is a,1,These are both,plant,warmup2
411,NA,"redwood,sequoia",NA,NA,9,warmup/bonsai.jpg,redwood|sequoia,This is a,no,1,trees,jessica,bonsai,NA,NA,Please label the pictures below.,25,NA,awesome,NA,warmup/sequoia.jpg,trees,graduated_college,NA,english,male,NA,trees,NA,2,1566831088896,2,This is a,1,These are both,bonsai,warmup2
411,NA,"redwood,sequoia",NA,NA,9,warmup/bonsai.jpg,redwood|sequoia,This is a,no,1,trees,jessica,bonsai,NA,NA,Please label the pictures below.,25,NA,awesome,NA,warmup/sequoia.jpg,trees,graduated_college,NA,english,male,NA,trees,NA,2,1566831088896,3,This is a,1,These are both,bonsai,warmup2
411,NA,"redwood,sequoia",NA,NA,9,warmup/bonsai.jpg,redwood|sequoia,This is a,no,1,trees,jessica,bonsai,NA,NA,Please label the pictures below.,25,NA,awesome,NA,warmup/sequoia.jpg,trees,graduated_college,NA,english,male,NA,trees,NA,2,1566831088896,4,This is a,1,These are both,bonsai,warmup2
411,NA,redwood,NA,NA,9,warmup/bonsai.jpg,redwood|sequoia,This is a,no,1,trees,jessica,bonsai,NA,NA,Please label the pictures below.,25,NA,awesome,NA,warmup/sequoia.jpg,trees,graduated_college,NA,english,male,NA,trees,NA,2,1566831088896,5,This is a,1,These are both,bonsai,warmup2
411,NA,sunflower,NA,NA,9,warmup/sunflower.png,dandelion,This is a,no,1,flowers,jessica,sunflower,NA,NA,Please label the pictures below.,25,NA,awesome,NA,warmup/dandelion.jpg,flowers,graduated_college,NA,english,male,NA,flowers,NA,3,1566831088896,1,This is a,1,These are both,sunflower,warmup2
411,NA,dandelion,NA,NA,9,warmup/sunflower.png,dandelion,This is a,no,1,flowers,jessica,sunflower,NA,NA,Please label the pictures below.,25,NA,awesome,NA,warmup/dandelion.jpg,flowers,graduated_college,NA,english,male,NA,flowers,NA,3,1566831088896,2,This is a,1,These are both,sunflower,warmup2
411,Please rephrase your friend's comment.,NA,It is big relative to other,images/tree-parade-redwood.png,9,NA,NA,NA,no,1,trees,jessica,NA,1,NA,Your friend points to another member of the group which you cannot see and says: <br/><b>That one is big.</b>,25,trees,awesome,1,NA,NA,graduated_college,big,english,male,NA,NA,You and your friend see the following:,1,1566831088896,NA,NA,1,NA,NA,custom_main_text2
411,Please rephrase your friend's comment.,NA,It is small relative to other,images/fish-parade-goldfish.png,9,NA,NA,NA,no,1,fish,jessica,NA,1,NA,Your friend points to another member of the group which you cannot see and says: <br/><b>That goldfish is small.</b>,25,fish,awesome,0,NA,NA,graduated_college,small,english,male,NA,NA,You and your friend see the following:,2,1566831088896,NA,NA,1,NA,NA,custom_main_text2
411,Please rephrase your friend's comment.,NA,It is small relative to other,images/flower-parade-dandelion.png,9,NA,NA,NA,no,1,flowers,jessica,NA,1,NA,Your friend points to another member of the group which you cannot see and says: <br/><b>That one is small.</b>,25,plant,awesome,1,NA,NA,graduated_college,small,english,male,NA,NA,You and your friend see the following:,3,1566831088896,NA,NA,1,NA,NA,custom_main_text2
373,NA,swordfish,NA,NA,9,warmup/goldfish.png,swordfish,This is a,none,1,fish,susan,goldfish,NA,yes,Please label the pictures below.,58,NA,none,NA,warmup/swordfish.jpg,fish,graduated_college,NA,English,male,NA,fish,NA,1,1566830118958,1,This is a,1,These are both,goldfish,warmup1
373,NA,redwood tree,NA,NA,9,warmup/bonsai.jpg,redwood|sequoia,This is a,none,1,trees,susan,bonsai,NA,yes,Please label the pictures below.,58,NA,none,NA,warmup/sequoia.jpg,trees,graduated_college,NA,English,male,NA,trees,NA,2,1566830118958,1,This is a,1,These are both,bonsai tree,warmup1
373,NA,redwood,NA,NA,9,warmup/bonsai.jpg,redwood|sequoia,This is a,none,1,trees,susan,bonsai,NA,yes,Please label the pictures below.,58,NA,none,NA,warmup/sequoia.jpg,trees,graduated_college,NA,English,male,NA,trees,NA,2,1566830118958,2,This is a,1,These are both,bonsai,warmup1
373,NA,daisy,NA,NA,9,warmup/sunflower.png,dandelion,This is a,none,1,flowers,susan,sunflower,NA,yes,Please label the pictures below.,58,NA,none,NA,warmup/dandelion.jpg,flowers,graduated_college,NA,English,male,NA,flowers,NA,3,1566830118958,1,This is a,1,These are both,sunflower,warmup1
373,NA,dandelion,NA,NA,9,warmup/sunflower.png,dandelion,This is a,none,1,flowers,susan,sunflower,NA,yes,Please label the pictures below.,58,NA,none,NA,warmup/dandelion.jpg,flowers,graduated_college,NA,English,male,NA,flowers,NA,3,1566830118958,2,This is a,1,These are both,sunflower,warmup1
373,Please rephrase your friend's comment.,NA,It is small relative to other,images/tree-parade-bonsai.png,9,NA,NA,NA,none,1,trees,susan,NA,1,yes,Your friend points to another member of the group which you cannot see and says: <br/><b>That bonsai is small.</b>,58,bonsais,none,0,NA,NA,graduated_college,small,English,male,NA,NA,You and your friend see the following:,1,1566830118958,NA,NA,1,NA,NA,custom_main_text1
373,Please rephrase your friend's comment.,NA,It is big relative to other,images/fish-parade-swordfish.png,9,NA,NA,NA,none,1,fish,susan,NA,1,yes,Your friend points to another member of the group which you cannot see and says: <br/><b>That one is big.</b>,58,swordfishes,none,1,NA,NA,graduated_college,big,English,male,NA,NA,You and your friend see the following:,2,1566830118958,NA,NA,1,NA,NA,custom_main_text1
373,Please rephrase your friend's comment.,NA,It is small relative to other,images/flower-parade-basic.png,9,NA,NA,NA,none,1,flowers,susan,NA,0,yes,Your friend points to another member of the group which you cannot see and says: <br/><b>That dandelion is small.</b>,58,flowers,none,0,NA,NA,graduated_college,small,English,male,NA,NA,You and your friend see the following:,3,1566830118958,NA,NA,1,NA,NA,custom_main_text1
373,NA,pug,NA,NA,9,warmup/great-dane.jpg,pug,This is a,none,1,dogs,susan,great dane,NA,yes,Please label the pictures below.,58,NA,none,NA,warmup/pug.jpg,dogs,graduated_college,NA,English,male,NA,dogs,NA,1,1566830118958,1,This is a,1,These are both,labrador,warmup2
373,NA,pug,NA,NA,9,warmup/great-dane.jpg,pug,This is a,none,1,dogs,susan,great dane,NA,yes,Please label the pictures below.,58,NA,none,NA,warmup/pug.jpg,dogs,graduated_college,NA,English,male,NA,dogs,NA,1,1566830118958,2,This is a,1,These are both,great dane,warmup2
373,NA,hummingbird,NA,NA,9,warmup/eagle.jpg,hummingbird,This is a,none,1,birds,susan,eagle,NA,yes,Please label the pictures below.,58,NA,none,NA,warmup/colibri.jpg,birds,graduated_college,NA,English,male,NA,birds,NA,2,1566830118958,1,This is an,1,These are both,eagle,warmup2
373,NA,chihuahua,NA,NA,9,warmup/doberman.png,chihuahua,This is a,none,1,dogs,susan,doberman,NA,yes,Please label the pictures below.,58,NA,none,NA,warmup/chihuahua.jpg,dogs,graduated_college,NA,English,male,NA,dogs,NA,3,1566830118958,1,This is a,1,These are both,doberman,warmup2
373,Please rephrase your friend's comment.,NA,It is small relative to other,images/bird-parade-basic.png,9,NA,NA,NA,none,1,birds,susan,NA,0,yes,Your friend points to another member of the group which you cannot see and says: <br/><b> That one is small.</b>,58,birds,none,1,NA,NA,graduated_college,small,English,male,NA,NA,You and your friend see the following:,1,1566830118958,NA,NA,1,NA,NA,custom_main_text2
373,Please rephrase your friend's comment.,NA,It is big relative to other,images/dog-parade-great-dane.png,9,NA,NA,NA,none,1,dogs2,susan,NA,1,yes,Your friend points to another member of the group which you cannot see and says: <br/><b>That great dane is big.</b>,58,dogs,none,0,NA,NA,graduated_college,big,English,male,NA,NA,You and your friend see the following:,2,1566830118958,NA,NA,1,NA,NA,custom_main_text2
373,Please rephrase your friend's comment.,NA,It is big relative to other,images/dog-parade-basic.png,9,NA,NA,NA,none,1,dogs1,susan,NA,0,yes,Your friend points to another member of the group which you cannot see and says: <br/><b>That one is big.</b>,58,dogs,none,1,NA,NA,graduated_college,big,English,male,NA,NA,You and your friend see the following:,3,1566830118958,NA,NA,1,NA,NA,custom_main_text2
367,NA,chihuahua,NA,NA,9,warmup/doberman.png,chihuahua,This is a,NA,1,dogs,jennifer,doberman,NA,no,Please label the pictures below.,40,NA,NA,NA,warmup/chihuahua.jpg,dogs,graduated_college,NA,English,female,NA,dogs,NA,1,1566829543233,1,This is a,5,These are both,doberamn,warmup1
367,NA,chihuahua,NA,NA,9,warmup/doberman.png,chihuahua,This is a,NA,1,dogs,jennifer,doberman,NA,no,Please label the pictures below.,40,NA,NA,NA,warmup/chihuahua.jpg,dogs,graduated_college,NA,English,female,NA,dogs,NA,1,1566829543233,2,This is a,5,These are both,doberman,warmup1
367,NA,pug,NA,NA,9,warmup/great-dane.jpg,pug,This is a,NA,1,dogs,jennifer,great dane,NA,no,Please label the pictures below.,40,NA,NA,NA,warmup/pug.jpg,dogs,graduated_college,NA,English,female,NA,dogs,NA,2,1566829543233,1,This is a,5,These are both,great dane,warmup1
367,NA,redwood,NA,NA,9,warmup/bonsai.jpg,redwood|sequoia,This is a,NA,1,trees,jennifer,bonsai,NA,no,Please label the pictures below.,40,NA,NA,NA,warmup/sequoia.jpg,trees,graduated_college,NA,English,female,NA,trees,NA,3,1566829543233,1,This is a,5,These are both,bonsai,warmup1
367,Please rephrase your friend's comment.,NA,It is big relative to other,images/dog-parade-basic2.png,9,NA,NA,NA,NA,1,dogs2,jennifer,NA,0,no,Your friend points to another member of the group which you cannot see and says: <br/><b>That one is big.</b>,40,dogs,NA,1,NA,NA,graduated_college,big,English,female,NA,NA,You and your friend see the following:,1,1566829543233,NA,NA,5,NA,NA,custom_main_text1
367,Please rephrase your friend's comment.,NA,It is big relative to other,images/dog-parade-basic.png,9,NA,NA,NA,NA,1,dogs1,jennifer,NA,0,no,Your friend points to another member of the group which you cannot see and says: <br/><b>That doberman is big.</b>,40,dogs,NA,0,NA,NA,graduated_college,big,English,female,NA,NA,You and your friend see the following:,2,1566829543233,NA,NA,5,NA,NA,custom_main_text1
367,Please rephrase your friend's comment.,NA,It is small relative to other,images/tree-parade-basic.png,9,NA,NA,NA,NA,1,trees,jennifer,NA,0,no,Your friend points to another member of the group which you cannot see and says: <br/><b>That one is small.</b>,40,trees,NA,1,NA,NA,graduated_college,small,English,female,NA,NA,You and your friend see the following:,3,1566829543233,NA,NA,5,NA,NA,custom_main_text1
367,NA,swordfish,NA,NA,9,warmup/goldfish.png,swordfish,This is a,NA,1,fish,jennifer,goldfish,NA,no,Please label the pictures below.,40,NA,NA,NA,warmup/swordfish.jpg,fish,graduated_college,NA,English,female,NA,fish,NA,1,1566829543233,1,This is a,5,These are both,goldfish,warmup2
367,NA,hummingbird,NA,NA,9,warmup/eagle.jpg,hummingbird,This is a,NA,1,birds,jennifer,eagle,NA,no,Please label the pictures below.,40,NA,NA,NA,warmup/colibri.jpg,birds,graduated_college,NA,English,female,NA,birds,NA,2,1566829543233,1,This is an,5,These are both,eagle,warmup2
367,NA,Daisy,NA,NA,9,warmup/sunflower.png,dandelion,This is a,NA,1,flowers,jennifer,sunflower,NA,no,Please label the pictures below.,40,NA,NA,NA,warmup/dandelion.jpg,Flowers,graduated_college,NA,English,female,NA,flowers,NA,3,1566829543233,1,This is a,5,These are both,Sunflower,warmup2
367,NA,dandelion,NA,NA,9,warmup/sunflower.png,dandelion,This is a,NA,1,flowers,jennifer,sunflower,NA,no,Please label the pictures below.,40,NA,NA,NA,warmup/dandelion.jpg,Flowers,graduated_college,NA,English,female,NA,flowers,NA,3,1566829543233,2,This is a,5,These are both,Sunflower,warmup2
367,Please rephrase your friend's comment.,NA,It is small relative to other,images/flower-parade-dandelion.png,9,NA,NA,NA,NA,1,flowers,jennifer,NA,1,no,Your friend points to another member of the group which you cannot see and says: <br/><b>That dandelion is small.</b>,40,flower,NA,0,NA,NA,graduated_college,small,English,female,NA,NA,You and your friend see the following:,1,1566829543233,NA,NA,5,NA,NA,custom_main_text2
367,Please rephrase your friend's comment.,NA,It is small relative to other,images/bird-parade-hummingbird.png,9,NA,NA,NA,NA,1,birds,jennifer,NA,1,no,Your friend points to another member of the group which you cannot see and says: <br/><b> That hummingbird is small.</b>,40,hummingbird,NA,0,NA,NA,graduated_college,small,English,female,NA,NA,You and your friend see the following:,2,1566829543233,NA,NA,5,NA,NA,custom_main_text2
367,Please rephrase your friend's comment.,NA,It is big relative to other,images/fish-parade-swordfish.png,9,NA,NA,NA,NA,1,fish,jennifer,NA,1,no,Your friend points to another member of the group which you cannot see and says: <br/><b>That one is big.</b>,40,swordfish,NA,1,NA,NA,graduated_college,big,English,female,NA,NA,You and your friend see the following:,3,1566829543233,NA,NA,5,NA,NA,custom_main_text2
366,NA,dandelion,NA,NA,9,warmup/sunflower.png,dandelion,This is a,No,2,flowers,margaret,sunflower,NA,confused,Please label the pictures below.,27,NA,NA,NA,warmup/dandelion.jpg,plants,some_college,NA,English,male,NA,flowers,NA,1,1566829943825,1,This is a,1.5,These are both,sunflower,warmup1
366,NA,dandelion,NA,NA,9,warmup/sunflower.png,dandelion,This is a,No,2,flowers,margaret,sunflower,NA,confused,Please label the pictures below.,27,NA,NA,NA,warmup/dandelion.jpg,flowers,some_college,NA,English,male,NA,flowers,NA,1,1566829943825,2,This is a,1.5,These are both,sunflower,warmup1
366,NA,oak,NA,NA,9,warmup/bonsai.jpg,redwood|sequoia,This is a,No,2,trees,margaret,bonsai,NA,confused,Please label the pictures below.,27,NA,NA,NA,warmup/sequoia.jpg,trees,some_college,NA,English,male,NA,trees,NA,2,1566829943825,1,This is a,1.5,These are both,bonsai,warmup1
366,NA,redwood,NA,NA,9,warmup/bonsai.jpg,redwood|sequoia,This is a,No,2,trees,margaret,bonsai,NA,confused,Please label the pictures below.,27,NA,NA,NA,warmup/sequoia.jpg,trees,some_college,NA,English,male,NA,trees,NA,2,1566829943825,2,This is a,1.5,These are both,bonsai,warmup1
366,NA,pug,NA,NA,9,warmup/great-dane.jpg,pug,This is a,No,2,dogs,margaret,great dane,NA,confused,Please label the pictures below.,27,NA,NA,NA,warmup/pug.jpg,dogs,some_college,NA,English,male,NA,dogs,NA,3,1566829943825,1,This is a,1.5,These are both,great dane,warmup1
366,Please rephrase your friend's comment.,NA,It is small relative to other,images/flower-parade-dandelion.png,9,NA,NA,NA,No,2,flowers,margaret,NA,1,confused,Your friend points to another member of the group which you cannot see and says: <br/><b>That one is small.</b>,27,flowers,NA,1,NA,NA,some_college,small,English,male,NA,NA,You and your friend see the following:,1,1566829943825,NA,NA,1.5,NA,NA,custom_main_text1
366,Please rephrase your friend's comment.,NA,It is small relative to other,images/tree-parade-basic.png,9,NA,NA,NA,No,2,trees,margaret,NA,0,confused,Your friend points to another member of the group which you cannot see and says: <br/><b>That one is small.</b>,27,trees,NA,1,NA,NA,some_college,small,English,male,NA,NA,You and your friend see the following:,2,1566829943825,NA,NA,1.5,NA,NA,custom_main_text1
366,Please rephrase your friend's comment.,NA,It is big relative to other,images/dog-parade-basic2.png,9,NA,NA,NA,No,2,dogs2,margaret,NA,0,confused,Your friend points to another member of the group which you cannot see and says: <br/><b>That one is big.</b>,27,dogs,NA,1,NA,NA,some_college,big,English,male,NA,NA,You and your friend see the following:,3,1566829943825,NA,NA,1.5,NA,NA,custom_main_text1
366,NA,chihuahua,NA,NA,9,warmup/doberman.png,chihuahua,This is a,No,2,dogs,margaret,doberman,NA,confused,Please label the pictures below.,27,NA,NA,NA,warmup/chihuahua.jpg,dogs,some_college,NA,English,male,NA,dogs,NA,1,1566829943825,1,This is a,1.5,These are both,doberman,warmup2
366,NA,marlin,NA,NA,9,warmup/goldfish.png,swordfish,This is a,No,2,fish,margaret,goldfish,NA,confused,Please label the pictures below.,27,NA,NA,NA,warmup/swordfish.jpg,fish,some_college,NA,English,male,NA,fish,NA,2,1566829943825,1,This is a,1.5,These are both,goldfish,warmup2
366,NA,swordfish,NA,NA,9,warmup/goldfish.png,swordfish,This is a,No,2,fish,margaret,goldfish,NA,confused,Please label the pictures below.,27,NA,NA,NA,warmup/swordfish.jpg,fish,some_college,NA,English,male,NA,fish,NA,2,1566829943825,2,This is a,1.5,These are both,goldfish,warmup2
366,NA,hummingbird,NA,NA,9,warmup/eagle.jpg,hummingbird,This is a,No,2,birds,margaret,eagle,NA,confused,Please label the pictures below.,27,NA,NA,NA,warmup/colibri.jpg,birds,some_college,NA,English,male,NA,birds,NA,3,1566829943825,1,This is an,1.5,These are both,eagle,warmup2
366,Please rephrase your friend's comment.,NA,It is big relative to other,images/fish-parade-swordfish.png,9,NA,NA,NA,No,2,fish,margaret,NA,1,confused,Your friend points to another member of the group which you cannot see and says: <br/><b>That swordfish is big.</b>,27,fish,NA,0,NA,NA,some_college,big,English,male,NA,NA,You and your friend see the following:,1,1566829943825,NA,NA,1.5,NA,NA,custom_main_text2
366,Please rephrase your friend's comment.,NA,It is small relative to other,images/bird-parade-hummingbird.png,9,NA,NA,NA,No,2,birds,margaret,NA,1,confused,Your friend points to another member of the group which you cannot see and says: <br/><b> That hummingbird is small.</b>,27,birds,NA,0,NA,NA,some_college,small,English,male,NA,NA,You and your friend see the following:,2,1566829943825,NA,NA,1.5,NA,NA,custom_main_text2
366,Please rephrase your friend's comment.,NA,It is big relative to other,images/dog-parade-basic.png,9,NA,NA,NA,No,2,dogs1,margaret,NA,0,confused,Your friend points to another member of the group which you cannot see and says: <br/><b>That doberman is big.</b>,27,dogs,NA,0,NA,NA,some_college,big,English,male,NA,NA,You and your friend see the following:,3,1566829943825,NA,NA,1.5,NA,NA,custom_main_text2
364,NA,swordfish,NA,NA,9,warmup/goldfish.png,swordfish,This is a,None.,1,fish,susan,goldfish,NA,yes,Please label the pictures below.,37,NA,None.,NA,warmup/swordfish.jpg,fish,graduated_college,NA,English,female,NA,fish,NA,1,1566829543107,1,This is a,1,These are both,goldfish,warmup1
364,NA,chihuahua,NA,NA,9,warmup/doberman.png,chihuahua,This is a,None.,1,dogs,susan,doberman,NA,yes,Please label the pictures below.,37,NA,None.,NA,warmup/chihuahua.jpg,dogs,graduated_college,NA,English,female,NA,dogs,NA,2,1566829543107,1,This is a,1,These are both,doberman,warmup1
364,NA,bull dog,NA,NA,9,warmup/great-dane.jpg,pug,This is a,None.,1,dogs,susan,great dane,NA,yes,Please label the pictures below.,37,NA,None.,NA,warmup/pug.jpg,dogs,graduated_college,NA,English,female,NA,dogs,NA,3,1566829543107,1,This is a,1,These are both,great sdane,warmup1
364,NA,bull dog,NA,NA,9,warmup/great-dane.jpg,pug,This is a,None.,1,dogs,susan,great dane,NA,yes,Please label the pictures below.,37,NA,None.,NA,warmup/pug.jpg,dogs,graduated_college,NA,English,female,NA,dogs,NA,3,1566829543107,2,This is a,1,These are both,great sdane,warmup1
364,NA,bull dog,NA,NA,9,warmup/great-dane.jpg,pug,This is a,None.,1,dogs,susan,great dane,NA,yes,Please label the pictures below.,37,NA,None.,NA,warmup/pug.jpg,dogs,graduated_college,NA,English,female,NA,dogs,NA,3,1566829543107,3,This is a,1,These are both,great dane,warmup1
364,NA,bull dog,NA,NA,9,warmup/great-dane.jpg,pug,This is a,None.,1,dogs,susan,great dane,NA,yes,Please label the pictures below.,37,NA,None.,NA,warmup/pug.jpg,dogs,graduated_college,NA,English,female,NA,dogs,NA,3,1566829543107,4,This is a,1,These are both,great dane,warmup1
364,NA,pug,NA,NA,9,warmup/great-dane.jpg,pug,This is a,None.,1,dogs,susan,great dane,NA,yes,Please label the pictures below.,37,NA,None.,NA,warmup/pug.jpg,dogs,graduated_college,NA,English,female,NA,dogs,NA,3,1566829543107,5,This is a,1,These are both,great dane,warmup1
364,Please rephrase your friend's comment.,NA,It is small relative to other,images/fish-parade-goldfish.png,9,NA,NA,NA,None.,1,fish,susan,NA,1,yes,Your friend points to another member of the group which you cannot see and says: <br/><b>That one is small.</b>,37,fish,None.,1,NA,NA,graduated_college,small,English,female,NA,NA,You and your friend see the following:,1,1566829543107,NA,NA,1,NA,NA,custom_main_text1
364,Please rephrase your friend's comment.,NA,It is small relative to other,images/dog-parade-pug.png,9,NA,NA,NA,None.,1,dogs2,susan,NA,1,yes,Your friend points to another member of the group which you cannot see and says: <br/><b>That pug is small.</b>,37,dogs,None.,0,NA,NA,graduated_college,small,English,female,NA,NA,You and your friend see the following:,2,1566829543107,NA,NA,1,NA,NA,custom_main_text1
364,Please rephrase your friend's comment.,NA,It is big relative to other,images/dog-parade-doberman.png,9,NA,NA,NA,None.,1,dogs1,susan,NA,1,yes,Your friend points to another member of the group which you cannot see and says: <br/><b>That one is big.</b>,37,dobermen,None.,1,NA,NA,graduated_college,big,English,female,NA,NA,You and your friend see the following:,3,1566829543107,NA,NA,1,NA,NA,custom_main_text1
364,NA,hummingbird,NA,NA,9,warmup/eagle.jpg,hummingbird,This is a,None.,1,birds,susan,eagle,NA,yes,Please label the pictures below.,37,NA,None.,NA,warmup/colibri.jpg,bird,graduated_college,NA,English,female,NA,birds,NA,1,1566829543107,1,This is an,1,These are both,bald eagle,warmup2
364,NA,hummingbird,NA,NA,9,warmup/eagle.jpg,hummingbird,This is a,None.,1,birds,susan,eagle,NA,yes,Please label the pictures below.,37,NA,None.,NA,warmup/colibri.jpg,bird,graduated_college,NA,English,female,NA,birds,NA,1,1566829543107,2,This is an,1,These are both,eagle,warmup2
364,NA,hummingbird,NA,NA,9,warmup/eagle.jpg,hummingbird,This is a,None.,1,birds,susan,eagle,NA,yes,Please label the pictures below.,37,NA,None.,NA,warmup/colibri.jpg,bird,graduated_college,NA,English,female,NA,birds,NA,1,1566829543107,3,This is an,1,These are both,eagle,warmup2
364,NA,hummingbird,NA,NA,9,warmup/eagle.jpg,hummingbird,This is a,None.,1,birds,susan,eagle,NA,yes,Please label the pictures below.,37,NA,None.,NA,warmup/colibri.jpg,birds,graduated_college,NA,English,female,NA,birds,NA,1,1566829543107,4,This is an,1,These are both,eagle,warmup2
364,NA,big tree,NA,NA,9,warmup/bonsai.jpg,redwood|sequoia,This is a,None.,1,trees,susan,bonsai,NA,yes,Please label the pictures below.,37,NA,None.,NA,warmup/sequoia.jpg,trees,graduated_college,NA,English,female,NA,trees,NA,2,1566829543107,1,This is a,1,These are both,small tree,warmup2
364,NA,redwood,NA,NA,9,warmup/bonsai.jpg,redwood|sequoia,This is a,None.,1,trees,susan,bonsai,NA,yes,Please label the pictures below.,37,NA,None.,NA,warmup/sequoia.jpg,trees,graduated_college,NA,English,female,NA,trees,NA,2,1566829543107,2,This is a,1,These are both,bonsai,warmup2
364,NA,dsa,NA,NA,9,warmup/sunflower.png,dandelion,This is a,None.,1,flowers,susan,sunflower,NA,yes,Please label the pictures below.,37,NA,None.,NA,warmup/dandelion.jpg,flowers,graduated_college,NA,English,female,NA,flowers,NA,3,1566829543107,1,This is a,1,These are both,sunflower,warmup2
364,NA,dandelion,NA,NA,9,warmup/sunflower.png,dandelion,This is a,None.,1,flowers,susan,sunflower,NA,yes,Please label the pictures below.,37,NA,None.,NA,warmup/dandelion.jpg,flowers,graduated_college,NA,English,female,NA,flowers,NA,3,1566829543107,2,This is a,1,These are both,sunflower,warmup2
364,Please rephrase your friend's comment.,NA,It is small relative to other,images/flower-parade-basic.png,9,NA,NA,NA,None.,1,flowers,susan,NA,0,yes,Your friend points to another member of the group which you cannot see and says: <br/><b>That dandelion is small.</b>,37,flowers,None.,0,NA,NA,graduated_college,small,English,female,NA,NA,You and your friend see the following:,1,1566829543107,NA,NA,1,NA,NA,custom_main_text2
364,Please rephrase your friend's comment.,NA,It is big relative to other,images/tree-parade-basic.png,9,NA,NA,NA,None.,1,trees,susan,NA,0,yes,Your friend points to another member of the group which you cannot see and says: <br/><b>That one is big.</b>,37,trees,None.,1,NA,NA,graduated_college,big,English,female,NA,NA,You and your friend see the following:,2,1566829543107,NA,NA,1,NA,NA,custom_main_text2
364,Please rephrase your friend's comment.,NA,It is big relative to other,images/bird-parade-basic.png,9,NA,NA,NA,None.,1,birds,susan,NA,0,yes,Your friend points to another member of the group which you cannot see and says: <br/><b> That eagle is big.</b>,37,birds,None.,0,NA,NA,graduated_college,big,English,female,NA,NA,You and your friend see the following:,3,1566829543107,NA,NA,1,NA,NA,custom_main_text2
362,NA,pug,NA,NA,9,warmup/great-dane.jpg,pug,This is a,No,2,dogs,Barbara,great dane,NA,yes,Please label the pictures below.,35,NA,None at this time,NA,warmup/pug.jpg,dogs,higher_degree,NA,English,male,NA,dogs,NA,1,1566828851498,1,This is a,1,These are both,retriever,warmup1
362,NA,pug,NA,NA,9,warmup/great-dane.jpg,pug,This is a,No,2,dogs,Barbara,great dane,NA,yes,Please label the pictures below.,35,NA,None at this time,NA,warmup/pug.jpg,dogs,higher_degree,NA,English,male,NA,dogs,NA,1,1566828851498,2,This is a,1,These are both,Great Dane,warmup1
362,NA,chiuahha,NA,NA,9,warmup/doberman.png,chihuahua,This is a,No,2,dogs,Barbara,doberman,NA,yes,Please label the pictures below.,35,NA,None at this time,NA,warmup/chihuahua.jpg,dogs,higher_degree,NA,English,male,NA,dogs,NA,2,1566828851498,1,This is a,1,These are both,doberman,warmup1
362,NA,chihuahua,NA,NA,9,warmup/doberman.png,chihuahua,This is a,No,2,dogs,Barbara,doberman,NA,yes,Please label the pictures below.,35,NA,None at this time,NA,warmup/chihuahua.jpg,dogs,higher_degree,NA,English,male,NA,dogs,NA,2,1566828851498,2,This is a,1,These are both,doberman,warmup1
362,NA,hummingbird,NA,NA,9,warmup/eagle.jpg,hummingbird,This is a,No,2,birds,Barbara,eagle,NA,yes,Please label the pictures below.,35,NA,None at this time,NA,warmup/colibri.jpg,bird,higher_degree,NA,English,male,NA,birds,NA,3,1566828851498,1,This is an,1,These are both,eagle,warmup1
362,NA,hummingbird,NA,NA,9,warmup/eagle.jpg,hummingbird,This is a,No,2,birds,Barbara,eagle,NA,yes,Please label the pictures below.,35,NA,None at this time,NA,warmup/colibri.jpg,birds,higher_degree,NA,English,male,NA,birds,NA,3,1566828851498,2,This is an,1,These are both,eagle,warmup1
362,Please rephrase your friend's comment.,NA,It is small relative to other,images/bird-parade-hummingbird.png,9,NA,NA,NA,No,2,birds,Barbara,NA,1,yes,Your friend points to another member of the group which you cannot see and says: <br/><b> That hummingbird is small.</b>,35,birds,None at this time,0,NA,NA,higher_degree,small,English,male,NA,NA,You and your friend see the following:,1,1566828851498,NA,NA,1,NA,NA,custom_main_text1
362,Please rephrase your friend's comment.,NA,It is small relative to other,images/dog-parade-basic2.png,9,NA,NA,NA,No,2,dogs2,Barbara,NA,0,yes,Your friend points to another member of the group which you cannot see and says: <br/><b>That one is small.</b>,35,dogs,None at this time,1,NA,NA,higher_degree,small,English,male,NA,NA,You and your friend see the following:,2,1566828851498,NA,NA,1,NA,NA,custom_main_text1
362,Please rephrase your friend's comment.,NA,It is big relative to other,images/dog-parade-basic.png,9,NA,NA,NA,No,2,dogs1,Barbara,NA,0,yes,Your friend points to another member of the group which you cannot see and says: <br/><b>That one is big.</b>,35,dogs,None at this time,1,NA,NA,higher_degree,big,English,male,NA,NA,You and your friend see the following:,3,1566828851498,NA,NA,1,NA,NA,custom_main_text1
362,NA,swordfish,NA,NA,9,warmup/goldfish.png,swordfish,This is a,No,2,fish,Barbara,goldfish,NA,yes,Please label the pictures below.,35,NA,None at this time,NA,warmup/swordfish.jpg,fish,higher_degree,NA,English,male,NA,fish,NA,1,1566828851498,1,This is a,1,These are both,goldfish,warmup2
362,NA,redwood,NA,NA,9,warmup/bonsai.jpg,redwood|sequoia,This is a,No,2,trees,Barbara,bonsai,NA,yes,Please label the pictures below.,35,NA,None at this time,NA,warmup/sequoia.jpg,trees,higher_degree,NA,English,male,NA,trees,NA,2,1566828851498,1,This is a,1,These are both,bonzi,warmup2
362,NA,redwood,NA,NA,9,warmup/bonsai.jpg,redwood|sequoia,This is a,No,2,trees,Barbara,bonsai,NA,yes,Please label the pictures below.,35,NA,None at this time,NA,warmup/sequoia.jpg,trees,higher_degree,NA,English,male,NA,trees,NA,2,1566828851498,2,This is a,1,These are both,bonsai,warmup2
362,NA,dandelion,NA,NA,9,warmup/sunflower.png,dandelion,This is a,No,2,flowers,Barbara,sunflower,NA,yes,Please label the pictures below.,35,NA,None at this time,NA,warmup/dandelion.jpg,flowers,higher_degree,NA,English,male,NA,flowers,NA,3,1566828851498,1,This is a,1,These are both,sunflower,warmup2
362,Please rephrase your friend's comment.,NA,It is small relative to other,images/flower-parade-dandelion.png,9,NA,NA,NA,No,2,flowers,Barbara,NA,1,yes,Your friend points to another member of the group which you cannot see and says: <br/><b>That dandelion is small.</b>,35,dandelions,None at this time,0,NA,NA,higher_degree,small,English,male,NA,NA,You and your friend see the following:,1,1566828851498,NA,NA,1,NA,NA,custom_main_text2
362,Please rephrase your friend's comment.,NA,It is big relative to other,images/tree-parade-redwood.png,9,NA,NA,NA,No,2,trees,Barbara,NA,1,yes,Your friend points to another member of the group which you cannot see and says: <br/><b>That redwood is big.</b>,35,redwoods,None at this time,0,NA,NA,higher_degree,big,English,male,NA,NA,You and your friend see the following:,2,1566828851498,NA,NA,1,NA,NA,custom_main_text2
362,Please rephrase your friend's comment.,NA,It is big relative to other,images/fish-parade-basic.png,9,NA,NA,NA,No,2,fish,Barbara,NA,0,yes,Your friend points to another member of the group which you cannot see and says: <br/><b>That one is big.</b>,35,fish,None at this time,1,NA,NA,higher_degree,big,English,male,NA,NA,You and your friend see the following:,3,1566828851498,NA,NA,1,NA,NA,custom_main_text2
360,NA,swordfish,NA,NA,9,warmup/goldfish.png,swordfish,This is a,no,1,fish,Elizabeth,goldfish,NA,yes,Please label the pictures below.,53,NA,none,NA,warmup/swordfish.jpg,fish,graduated_college,NA,english,male,NA,fish,NA,1,1566829180254,1,This is a,1.5,These are both,goldfish,warmup1
360,NA,hummingbird,NA,NA,9,warmup/eagle.jpg,hummingbird,This is a,no,1,birds,Elizabeth,eagle,NA,yes,Please label the pictures below.,53,NA,none,NA,warmup/colibri.jpg,birds,graduated_college,NA,english,male,NA,birds,NA,2,1566829180254,1,This is an,1.5,These are both,eagle,warmup1
360,NA,chihuahua,NA,NA,9,warmup/doberman.png,chihuahua,This is a,no,1,dogs,Elizabeth,doberman,NA,yes,Please label the pictures below.,53,NA,none,NA,warmup/chihuahua.jpg,dogs,graduated_college,NA,english,male,NA,dogs,NA,3,1566829180254,1,This is a,1.5,These are both,doberman,warmup1
360,Please rephrase your friend's comment.,NA,It is small relative to other,images/dog-parade-chihuahua.png,9,NA,NA,NA,no,1,dogs1,Elizabeth,NA,1,yes,Your friend points to another member of the group which you cannot see and says: <br/><b>That one is small.</b>,53,those dogs are small,none,1,NA,NA,graduated_college,small,english,male,NA,NA,You and your friend see the following:,1,1566829180254,NA,NA,1.5,NA,NA,custom_main_text1
360,Please rephrase your friend's comment.,NA,It is big relative to other,images/fish-parade-basic.png,9,NA,NA,NA,no,1,fish,Elizabeth,NA,0,yes,Your friend points to another member of the group which you cannot see and says: <br/><b>That one is big.</b>,53,the swordfish are big,none,1,NA,NA,graduated_college,big,english,male,NA,NA,You and your friend see the following:,2,1566829180254,NA,NA,1.5,NA,NA,custom_main_text1
360,Please rephrase your friend's comment.,NA,It is big relative to other,images/bird-parade-eagle.png,9,NA,NA,NA,no,1,birds,Elizabeth,NA,1,yes,Your friend points to another member of the group which you cannot see and says: <br/><b> That eagle is big.</b>,53,those eagles are big,none,0,NA,NA,graduated_college,big,english,male,NA,NA,You and your friend see the following:,3,1566829180254,NA,NA,1.5,NA,NA,custom_main_text1
360,NA,pug,NA,NA,9,warmup/great-dane.jpg,pug,This is a,no,1,dogs,Elizabeth,great dane,NA,yes,Please label the pictures below.,53,NA,none,NA,warmup/pug.jpg,dogs,graduated_college,NA,english,male,NA,dogs,NA,1,1566829180254,1,This is a,1.5,These are both,dog,warmup2
360,NA,pug,NA,NA,9,warmup/great-dane.jpg,pug,This is a,no,1,dogs,Elizabeth,great dane,NA,yes,Please label the pictures below.,53,NA,none,NA,warmup/pug.jpg,dogs,graduated_college,NA,english,male,NA,dogs,NA,1,1566829180254,2,This is a,1.5,These are both,great dane,warmup2
360,NA,maple,NA,NA,9,warmup/bonsai.jpg,redwood|sequoia,This is a,no,1,trees,Elizabeth,bonsai,NA,yes,Please label the pictures below.,53,NA,none,NA,warmup/sequoia.jpg,trees,graduated_college,NA,english,male,NA,trees,NA,2,1566829180254,1,This is a,1.5,These are both,bonsai,warmup2
360,NA,redwood,NA,NA,9,warmup/bonsai.jpg,redwood|sequoia,This is a,no,1,trees,Elizabeth,bonsai,NA,yes,Please label the pictures below.,53,NA,none,NA,warmup/sequoia.jpg,trees,graduated_college,NA,english,male,NA,trees,NA,2,1566829180254,2,This is a,1.5,These are both,bonsai,warmup2
360,NA,daisy,NA,NA,9,warmup/sunflower.png,dandelion,This is a,no,1,flowers,Elizabeth,sunflower,NA,yes,Please label the pictures below.,53,NA,none,NA,warmup/dandelion.jpg,flowers,graduated_college,NA,english,male,NA,flowers,NA,3,1566829180254,1,This is a,1.5,These are both,sunflower,warmup2
360,NA,dandelion,NA,NA,9,warmup/sunflower.png,dandelion,This is a,no,1,flowers,Elizabeth,sunflower,NA,yes,Please label the pictures below.,53,NA,none,NA,warmup/dandelion.jpg,flowers,graduated_college,NA,english,male,NA,flowers,NA,3,1566829180254,2,This is a,1.5,These are both,sunflower,warmup2
360,Please rephrase your friend's comment.,NA,It is small relative to other,images/flower-parade-dandelion.png,9,NA,NA,NA,no,1,flowers,Elizabeth,NA,1,yes,Your friend points to another member of the group which you cannot see and says: <br/><b>That dandelion is small.</b>,53,those dandelions are small,none,0,NA,NA,graduated_college,small,english,male,NA,NA,You and your friend see the following:,1,1566829180254,NA,NA,1.5,NA,NA,custom_main_text2
360,Please rephrase your friend's comment.,NA,It is big relative to other,images/tree-parade-basic.png,9,NA,NA,NA,no,1,trees,Elizabeth,NA,0,yes,Your friend points to another member of the group which you cannot see and says: <br/><b>That redwood is big.</b>,53,that tree on the far left is big,none,0,NA,NA,graduated_college,big,english,male,NA,NA,You and your friend see the following:,2,1566829180254,NA,NA,1.5,NA,NA,custom_main_text2
360,Please rephrase your friend's comment.,NA,It is small relative to other,images/dog-parade-basic2.png,9,NA,NA,NA,no,1,dogs2,Elizabeth,NA,0,yes,Your friend points to another member of the group which you cannot see and says: <br/><b>That one is small.</b>,53,that pug on the left is small,none,1,NA,NA,graduated_college,small,english,male,NA,NA,You and your friend see the following:,3,1566829180254,NA,NA,1.5,NA,NA,custom_main_text2
359,NA,hummingbird,NA,NA,9,warmup/eagle.jpg,hummingbird,This is a,No,1,birds,elizabeth,eagle,NA,yes,Please label the pictures below.,31,NA,It went well. I did my best and gave the experiment my full attention. Thank you,NA,warmup/colibri.jpg,birds,some_college,NA,English,female,NA,birds,NA,1,1566829151606,1,This is an,1,These are both,eagle,warmup1
359,NA,bluefish,NA,NA,9,warmup/goldfish.png,swordfish,This is a,No,1,fish,elizabeth,goldfish,NA,yes,Please label the pictures below.,31,NA,It went well. I did my best and gave the experiment my full attention. Thank you,NA,warmup/swordfish.jpg,fish,some_college,NA,English,female,NA,fish,NA,2,1566829151606,1,This is a,1,These are both,goldfish,warmup1
359,NA,bluefish,NA,NA,9,warmup/goldfish.png,swordfish,This is a,No,1,fish,elizabeth,goldfish,NA,yes,Please label the pictures below.,31,NA,It went well. I did my best and gave the experiment my full attention. Thank you,NA,warmup/swordfish.jpg,fish,some_college,NA,English,female,NA,fish,NA,2,1566829151606,2,This is a,1,These are both,goldfish,warmup1
359,NA,swordfish,NA,NA,9,warmup/goldfish.png,swordfish,This is a,No,1,fish,elizabeth,goldfish,NA,yes,Please label the pictures below.,31,NA,It went well. I did my best and gave the experiment my full attention. Thank you,NA,warmup/swordfish.jpg,fish,some_college,NA,English,female,NA,fish,NA,2,1566829151606,3,This is a,1,These are both,goldfish,warmup1
359,NA,dandelion,NA,NA,9,warmup/sunflower.png,dandelion,This is a,No,1,flowers,elizabeth,sunflower,NA,yes,Please label the pictures below.,31,NA,It went well. I did my best and gave the experiment my full attention. Thank you,NA,warmup/dandelion.jpg,flowers,some_college,NA,English,female,NA,flowers,NA,3,1566829151606,1,This is a,1,These are both,sunflower,warmup1
359,Please rephrase your friend's comment.,NA,It is small relative to other,images/fish-parade-goldfish.png,9,NA,NA,NA,No,1,fish,elizabeth,NA,1,yes,Your friend points to another member of the group which you cannot see and says: <br/><b>That goldfish is small.</b>,31,golfish,It went well. I did my best and gave the experiment my full attention. Thank you,0,NA,NA,some_college,small,English,female,NA,NA,You and your friend see the following:,1,1566829151606,NA,NA,1,NA,NA,custom_main_text1
359,Please rephrase your friend's comment.,NA,It is small relative to other,images/flower-parade-dandelion.png,9,NA,NA,NA,No,1,flowers,elizabeth,NA,1,yes,Your friend points to another member of the group which you cannot see and says: <br/><b>That dandelion is small.</b>,31,dadelions,It went well. I did my best and gave the experiment my full attention. Thank you,0,NA,NA,some_college,small,English,female,NA,NA,You and your friend see the following:,2,1566829151606,NA,NA,1,NA,NA,custom_main_text1
359,Please rephrase your friend's comment.,NA,It is big relative to other,images/bird-parade-basic.png,9,NA,NA,NA,No,1,birds,elizabeth,NA,0,yes,Your friend points to another member of the group which you cannot see and says: <br/><b> That one is big.</b>,31,birds,It went well. I did my best and gave the experiment my full attention. Thank you,1,NA,NA,some_college,big,English,female,NA,NA,You and your friend see the following:,3,1566829151606,NA,NA,1,NA,NA,custom_main_text1
359,NA,chihuahua,NA,NA,9,warmup/doberman.png,chihuahua,This is a,No,1,dogs,elizabeth,doberman,NA,yes,Please label the pictures below.,31,NA,It went well. I did my best and gave the experiment my full attention. Thank you,NA,warmup/chihuahua.jpg,dogs,some_college,NA,English,female,NA,dogs,NA,1,1566829151606,1,This is a,1,These are both,doberman,warmup2
359,NA,birch,NA,NA,9,warmup/bonsai.jpg,redwood|sequoia,This is a,No,1,trees,elizabeth,bonsai,NA,yes,Please label the pictures below.,31,NA,It went well. I did my best and gave the experiment my full attention. Thank you,NA,warmup/sequoia.jpg,trees,some_college,NA,English,female,NA,trees,NA,2,1566829151606,1,This is a,1,These are both,bonsai,warmup2
359,NA,redwood,NA,NA,9,warmup/bonsai.jpg,redwood|sequoia,This is a,No,1,trees,elizabeth,bonsai,NA,yes,Please label the pictures below.,31,NA,It went well. I did my best and gave the experiment my full attention. Thank you,NA,warmup/sequoia.jpg,trees,some_college,NA,English,female,NA,trees,NA,2,1566829151606,2,This is a,1,These are both,bonsai,warmup2
359,NA,pug,NA,NA,9,warmup/great-dane.jpg,pug,This is a,No,1,dogs,elizabeth,great dane,NA,yes,Please label the pictures below.,31,NA,It went well. I did my best and gave the experiment my full attention. Thank you,NA,warmup/pug.jpg,dogs,some_college,NA,English,female,NA,dogs,NA,3,1566829151606,1,This is a,1,These are both,great dane,warmup2
359,Please rephrase your friend's comment.,NA,It is big relative to other,images/dog-parade-basic2.png,9,NA,NA,NA,No,1,dogs2,elizabeth,NA,0,yes,Your friend points to another member of the group which you cannot see and says: <br/><b>That great dane is big.</b>,31,dogs,It went well. I did my best and gave the experiment my full attention. Thank you,0,NA,NA,some_college,big,English,female,NA,NA,You and your friend see the following:,1,1566829151606,NA,NA,1,NA,NA,custom_main_text2
359,Please rephrase your friend's comment.,NA,It is small relative to other,images/tree-parade-bonsai.png,9,NA,NA,NA,No,1,trees,elizabeth,NA,1,yes,Your friend points to another member of the group which you cannot see and says: <br/><b>That one is small.</b>,31,bonsai,It went well. I did my best and gave the experiment my full attention. Thank you,1,NA,NA,some_college,small,English,female,NA,NA,You and your friend see the following:,2,1566829151606,NA,NA,1,NA,NA,custom_main_text2
359,Please rephrase your friend's comment.,NA,It is big relative to other,images/dog-parade-basic.png,9,NA,NA,NA,No,1,dogs1,elizabeth,NA,0,yes,Your friend points to another member of the group which you cannot see and says: <br/><b>That one is big.</b>,31,dogs,It went well. I did my best and gave the experiment my full attention. Thank you,1,NA,NA,some_college,big,English,female,NA,NA,You and your friend see the following:,3,1566829151606,NA,NA,1,NA,NA,custom_main_text2
358,NA,Swordish,NA,NA,9,warmup/goldfish.png,swordfish,This is a,NA,1,fish,Patricia,goldfish,NA,yes,Please label the pictures below.,22,NA,NA,NA,warmup/swordfish.jpg,fish,graduated_high_school,NA,NA,male,NA,fish,NA,1,1566829275651,1,This is a,1,These are both,goldfish,warmup1
358,NA,Swordfish,NA,NA,9,warmup/goldfish.png,swordfish,This is a,NA,1,fish,Patricia,goldfish,NA,yes,Please label the pictures below.,22,NA,NA,NA,warmup/swordfish.jpg,fish,graduated_high_school,NA,NA,male,NA,fish,NA,1,1566829275651,2,This is a,1,These are both,goldfish,warmup1
358,NA,Hummingbird,NA,NA,9,warmup/eagle.jpg,hummingbird,This is a,NA,1,birds,Patricia,eagle,NA,yes,Please label the pictures below.,22,NA,NA,NA,warmup/colibri.jpg,birds,graduated_high_school,NA,NA,male,NA,birds,NA,2,1566829275651,1,This is an,1,These are both,eagle,warmup1
358,NA,Dog,NA,NA,9,warmup/great-dane.jpg,pug,This is a,NA,1,dogs,Patricia,great dane,NA,yes,Please label the pictures below.,22,NA,NA,NA,warmup/pug.jpg,Dog,graduated_high_school,NA,NA,male,NA,dogs,NA,3,1566829275651,1,This is a,1,These are both,Dog,warmup1
358,NA,Pug,NA,NA,9,warmup/great-dane.jpg,pug,This is a,NA,1,dogs,Patricia,great dane,NA,yes,Please label the pictures below.,22,NA,NA,NA,warmup/pug.jpg,Dogs,graduated_high_school,NA,NA,male,NA,dogs,NA,3,1566829275651,2,This is a,1,These are both,Great dane,warmup1
358,Please rephrase your friend's comment.,NA,It is big relative to other,images/fish-parade-swordfish.png,9,NA,NA,NA,NA,1,fish,Patricia,NA,1,yes,Your friend points to another member of the group which you cannot see and says: <br/><b>That swordfish is big.</b>,22,swordfish,NA,0,NA,NA,graduated_high_school,big,NA,male,NA,NA,You and your friend see the following:,1,1566829275651,NA,NA,1,NA,NA,custom_main_text1
358,Please rephrase your friend's comment.,NA,It is small relative to other,images/bird-parade-hummingbird.png,9,NA,NA,NA,NA,1,birds,Patricia,NA,1,yes,Your friend points to another member of the group which you cannot see and says: <br/><b> That hummingbird is small.</b>,22,hummingbirds,NA,0,NA,NA,graduated_high_school,small,NA,male,NA,NA,You and your friend see the following:,2,1566829275651,NA,NA,1,NA,NA,custom_main_text1
358,Please rephrase your friend's comment.,NA,It is big relative to other,images/dog-parade-basic2.png,9,NA,NA,NA,NA,1,dogs2,Patricia,NA,0,yes,Your friend points to another member of the group which you cannot see and says: <br/><b>That great dane is big.</b>,22,dogs,NA,0,NA,NA,graduated_high_school,big,NA,male,NA,NA,You and your friend see the following:,3,1566829275651,NA,NA,1,NA,NA,custom_main_text1
358,NA,tree,NA,NA,9,warmup/bonsai.jpg,redwood|sequoia,This is a,NA,1,trees,Patricia,bonsai,NA,yes,Please label the pictures below.,22,NA,NA,NA,warmup/sequoia.jpg,trees,graduated_high_school,NA,NA,male,NA,trees,NA,1,1566829275651,1,This is a,1,These are both,bonsai tree,warmup2
358,NA,redwood,NA,NA,9,warmup/bonsai.jpg,redwood|sequoia,This is a,NA,1,trees,Patricia,bonsai,NA,yes,Please label the pictures below.,22,NA,NA,NA,warmup/sequoia.jpg,trees,graduated_high_school,NA,NA,male,NA,trees,NA,1,1566829275651,2,This is a,1,These are both,bonsai,warmup2
358,NA,dog,NA,NA,9,warmup/doberman.png,chihuahua,This is a,NA,1,dogs,Patricia,doberman,NA,yes,Please label the pictures below.,22,NA,NA,NA,warmup/chihuahua.jpg,dogs,graduated_high_school,NA,NA,male,NA,dogs,NA,2,1566829275651,1,This is a,1,These are both,dog,warmup2
358,NA,chihuahua,NA,NA,9,warmup/doberman.png,chihuahua,This is a,NA,1,dogs,Patricia,doberman,NA,yes,Please label the pictures below.,22,NA,NA,NA,warmup/chihuahua.jpg,dogs,graduated_high_school,NA,NA,male,NA,dogs,NA,2,1566829275651,2,This is a,1,These are both,doberman,warmup2
358,NA,flower,NA,NA,9,warmup/sunflower.png,dandelion,This is a,NA,1,flowers,Patricia,sunflower,NA,yes,Please label the pictures below.,22,NA,NA,NA,warmup/dandelion.jpg,flowers,graduated_high_school,NA,NA,male,NA,flowers,NA,3,1566829275651,1,This is a,1,These are both,sunflower,warmup2
358,NA,dandelion,NA,NA,9,warmup/sunflower.png,dandelion,This is a,NA,1,flowers,Patricia,sunflower,NA,yes,Please label the pictures below.,22,NA,NA,NA,warmup/dandelion.jpg,flowers,graduated_high_school,NA,NA,male,NA,flowers,NA,3,1566829275651,2,This is a,1,These are both,sunflower,warmup2
358,Please rephrase your friend's comment.,NA,It is small relative to other,images/dog-parade-chihuahua.png,9,NA,NA,NA,NA,1,dogs1,Patricia,NA,1,yes,Your friend points to another member of the group which you cannot see and says: <br/><b>That one is small.</b>,22,dogs,NA,1,NA,NA,graduated_high_school,small,NA,male,NA,NA,You and your friend see the following:,1,1566829275651,NA,NA,1,NA,NA,custom_main_text2
358,Please rephrase your friend's comment.,NA,It is big relative to other,images/tree-parade-basic.png,9,NA,NA,NA,NA,1,trees,Patricia,NA,0,yes,Your friend points to another member of the group which you cannot see and says: <br/><b>That one is big.</b>,22,trees,NA,1,NA,NA,graduated_high_school,big,NA,male,NA,NA,You and your friend see the following:,2,1566829275651,NA,NA,1,NA,NA,custom_main_text2
358,Please rephrase your friend's comment.,NA,It is small relative to other,images/flower-parade-basic.png,9,NA,NA,NA,NA,1,flowers,Patricia,NA,0,yes,Your friend points to another member of the group which you cannot see and says: <br/><b>That one is small.</b>,22,flowers,NA,1,NA,NA,graduated_high_school,small,NA,male,NA,NA,You and your friend see the following:,3,1566829275651,NA,NA,1,NA,NA,custom_main_text2
357,NA,pug,NA,NA,9,warmup/great-dane.jpg,pug,This is a,No problems,2,dogs,sarah,great dane,NA,yes,Please label the pictures below.,37,NA,no comments,NA,warmup/pug.jpg,dogs,higher_degree,NA,English,male,NA,dogs,NA,1,1566829160627,1,This is a,1,These are both,great dane,warmup1
357,NA,marlin,NA,NA,9,warmup/goldfish.png,swordfish,This is a,No problems,2,fish,sarah,goldfish,NA,yes,Please label the pictures below.,37,NA,no comments,NA,warmup/swordfish.jpg,fish,higher_degree,NA,English,male,NA,fish,NA,2,1566829160627,1,This is a,1,These are both,goldfish,warmup1
357,NA,swordfish,NA,NA,9,warmup/goldfish.png,swordfish,This is a,No problems,2,fish,sarah,goldfish,NA,yes,Please label the pictures below.,37,NA,no comments,NA,warmup/swordfish.jpg,fish,higher_degree,NA,English,male,NA,fish,NA,2,1566829160627,2,This is a,1,These are both,goldfish,warmup1
357,NA,chihuahua,NA,NA,9,warmup/doberman.png,chihuahua,This is a,No problems,2,dogs,sarah,doberman,NA,yes,Please label the pictures below.,37,NA,no comments,NA,warmup/chihuahua.jpg,dogs,higher_degree,NA,English,male,NA,dogs,NA,3,1566829160627,1,This is a,1,These are both,doberman,warmup1
357,Please rephrase your friend's comment.,NA,It is big relative to other,images/fish-parade-basic.png,9,NA,NA,NA,No problems,2,fish,sarah,NA,0,yes,Your friend points to another member of the group which you cannot see and says: <br/><b>That one is big.</b>,37,fish,no comments,1,NA,NA,higher_degree,big,English,male,NA,NA,You and your friend see the following:,1,1566829160627,NA,NA,1,NA,NA,custom_main_text1
357,Please rephrase your friend's comment.,NA,It is big relative to other,images/dog-parade-doberman.png,9,NA,NA,NA,No problems,2,dogs1,sarah,NA,1,yes,Your friend points to another member of the group which you cannot see and says: <br/><b>That doberman is big.</b>,37,dobermans,no comments,0,NA,NA,higher_degree,big,English,male,NA,NA,You and your friend see the following:,2,1566829160627,NA,NA,1,NA,NA,custom_main_text1
357,Please rephrase your friend's comment.,NA,It is small relative to other,images/dog-parade-pug.png,9,NA,NA,NA,No problems,2,dogs2,sarah,NA,1,yes,Your friend points to another member of the group which you cannot see and says: <br/><b>That pug is small.</b>,37,pugs,no comments,0,NA,NA,higher_degree,small,English,male,NA,NA,You and your friend see the following:,3,1566829160627,NA,NA,1,NA,NA,custom_main_text1
357,NA,dandelion,NA,NA,9,warmup/sunflower.png,dandelion,This is a,No problems,2,flowers,sarah,sunflower,NA,yes,Please label the pictures below.,37,NA,no comments,NA,warmup/dandelion.jpg,flowers,higher_degree,NA,English,male,NA,flowers,NA,1,1566829160627,1,This is a,1,These are both,sunflower,warmup2
357,NA,redwood,NA,NA,9,warmup/bonsai.jpg,redwood|sequoia,This is a,No problems,2,trees,sarah,bonsai,NA,yes,Please label the pictures below.,37,NA,no comments,NA,warmup/sequoia.jpg,trees,higher_degree,NA,English,male,NA,trees,NA,2,1566829160627,1,This is a,1,These are both,bonsai,warmup2
357,NA,hummingbird,NA,NA,9,warmup/eagle.jpg,hummingbird,This is a,No problems,2,birds,sarah,eagle,NA,yes,Please label the pictures below.,37,NA,no comments,NA,warmup/colibri.jpg,birds,higher_degree,NA,English,male,NA,birds,NA,3,1566829160627,1,This is an,1,These are both,eagle,warmup2
357,Please rephrase your friend's comment.,NA,It is small relative to other,images/tree-parade-bonsai.png,9,NA,NA,NA,No problems,2,trees,sarah,NA,1,yes,Your friend points to another member of the group which you cannot see and says: <br/><b>That bonsai is small.</b>,37,bonsai,no comments,0,NA,NA,higher_degree,small,English,male,NA,NA,You and your friend see the following:,1,1566829160627,NA,NA,1,NA,NA,custom_main_text2
357,Please rephrase your friend's comment.,NA,It is small relative to other,images/flower-parade-basic.png,9,NA,NA,NA,No problems,2,flowers,sarah,NA,0,yes,Your friend points to another member of the group which you cannot see and says: <br/><b>That one is small.</b>,37,flowers,no comments,1,NA,NA,higher_degree,small,English,male,NA,NA,You and your friend see the following:,2,1566829160627,NA,NA,1,NA,NA,custom_main_text2
357,Please rephrase your friend's comment.,NA,It is big relative to other,images/bird-parade-basic.png,9,NA,NA,NA,No problems,2,birds,sarah,NA,0,yes,Your friend points to another member of the group which you cannot see and says: <br/><b> That one is big.</b>,37,birds,no comments,1,NA,NA,higher_degree,big,English,male,NA,NA,You and your friend see the following:,3,1566829160627,NA,NA,1,NA,NA,custom_main_text2
355,NA,pug,NA,NA,9,warmup/great-dane.jpg,pug,This is a,None,1,dogs,patricia,great dane,NA,yes,Please label the pictures below.,29,NA,NA,NA,warmup/pug.jpg,dogs,graduated_high_school,NA,English,female,NA,dogs,NA,1,1566829015908,1,This is a,1,These are both,labrador,warmup1
355,NA,pug,NA,NA,9,warmup/great-dane.jpg,pug,This is a,None,1,dogs,patricia,great dane,NA,yes,Please label the pictures below.,29,NA,NA,NA,warmup/pug.jpg,dogs,graduated_high_school,NA,English,female,NA,dogs,NA,1,1566829015908,2,This is a,1,These are both,great dane,warmup1
355,NA,oak,NA,NA,9,warmup/bonsai.jpg,redwood|sequoia,This is a,None,1,trees,patricia,bonsai,NA,yes,Please label the pictures below.,29,NA,NA,NA,warmup/sequoia.jpg,trees,graduated_high_school,NA,English,female,NA,trees,NA,2,1566829015908,1,This is a,1,These are both,sapling,warmup1
355,NA,redwood,NA,NA,9,warmup/bonsai.jpg,redwood|sequoia,This is a,None,1,trees,patricia,bonsai,NA,yes,Please label the pictures below.,29,NA,NA,NA,warmup/sequoia.jpg,trees,graduated_high_school,NA,English,female,NA,trees,NA,2,1566829015908,2,This is a,1,These are both,bonsai,warmup1
355,NA,hummingbird,NA,NA,9,warmup/eagle.jpg,hummingbird,This is a,None,1,birds,patricia,eagle,NA,yes,Please label the pictures below.,29,NA,NA,NA,warmup/colibri.jpg,birds,graduated_high_school,NA,English,female,NA,birds,NA,3,1566829015908,1,This is an,1,These are both,eagle,warmup1
355,Please rephrase your friend's comment.,NA,It is big relative to other,images/dog-parade-great-dane.png,9,NA,NA,NA,None,1,dogs2,patricia,NA,1,yes,Your friend points to another member of the group which you cannot see and says: <br/><b>That one is big.</b>,29,dogs,NA,1,NA,NA,graduated_high_school,big,English,female,NA,NA,You and your friend see the following:,1,1566829015908,NA,NA,1,NA,NA,custom_main_text1
355,Please rephrase your friend's comment.,NA,It is small relative to other,images/bird-parade-hummingbird.png,9,NA,NA,NA,None,1,birds,patricia,NA,1,yes,Your friend points to another member of the group which you cannot see and says: <br/><b> That hummingbird is small.</b>,29,birds,NA,0,NA,NA,graduated_high_school,small,English,female,NA,NA,You and your friend see the following:,2,1566829015908,NA,NA,1,NA,NA,custom_main_text1
355,Please rephrase your friend's comment.,NA,It is small relative to other,images/tree-parade-basic.png,9,NA,NA,NA,None,1,trees,patricia,NA,0,yes,Your friend points to another member of the group which you cannot see and says: <br/><b>That one is small.</b>,29,trees,NA,1,NA,NA,graduated_high_school,small,English,female,NA,NA,You and your friend see the following:,3,1566829015908,NA,NA,1,NA,NA,custom_main_text1
355,NA,swordfish,NA,NA,9,warmup/goldfish.png,swordfish,This is a,None,1,fish,patricia,goldfish,NA,yes,Please label the pictures below.,29,NA,NA,NA,warmup/swordfish.jpg,fish,graduated_high_school,NA,English,female,NA,fish,NA,1,1566829015908,1,This is a,1,These are both,goldfish,warmup2
355,NA,daisy,NA,NA,9,warmup/sunflower.png,dandelion,This is a,None,1,flowers,patricia,sunflower,NA,yes,Please label the pictures below.,29,NA,NA,NA,warmup/dandelion.jpg,flowers,graduated_high_school,NA,English,female,NA,flowers,NA,2,1566829015908,1,This is a,1,These are both,sunflower,warmup2
355,NA,dandelion,NA,NA,9,warmup/sunflower.png,dandelion,This is a,None,1,flowers,patricia,sunflower,NA,yes,Please label the pictures below.,29,NA,NA,NA,warmup/dandelion.jpg,flowers,graduated_high_school,NA,English,female,NA,flowers,NA,2,1566829015908,2,This is a,1,These are both,sunflower,warmup2
355,NA,chihuahua,NA,NA,9,warmup/doberman.png,chihuahua,This is a,None,1,dogs,patricia,doberman,NA,yes,Please label the pictures below.,29,NA,NA,NA,warmup/chihuahua.jpg,dog,graduated_high_school,NA,English,female,NA,dogs,NA,3,1566829015908,1,This is a,1,These are both,dog,warmup2
355,NA,chihuahua,NA,NA,9,warmup/doberman.png,chihuahua,This is a,None,1,dogs,patricia,doberman,NA,yes,Please label the pictures below.,29,NA,NA,NA,warmup/chihuahua.jpg,dog,graduated_high_school,NA,English,female,NA,dogs,NA,3,1566829015908,2,This is a,1,These are both,doberman,warmup2
355,NA,chihuahua,NA,NA,9,warmup/doberman.png,chihuahua,This is a,None,1,dogs,patricia,doberman,NA,yes,Please label the pictures below.,29,NA,NA,NA,warmup/chihuahua.jpg,dog,graduated_high_school,NA,English,female,NA,dogs,NA,3,1566829015908,3,This is a,1,These are both,doberman,warmup2
355,NA,chihuahua,NA,NA,9,warmup/doberman.png,chihuahua,This is a,None,1,dogs,patricia,doberman,NA,yes,Please label the pictures below.,29,NA,NA,NA,warmup/chihuahua.jpg,dogs,graduated_high_school,NA,English,female,NA,dogs,NA,3,1566829015908,4,This is a,1,These are both,doberman,warmup2
355,Please rephrase your friend's comment.,NA,It is big relative to other,images/flower-parade-basic.png,9,NA,NA,NA,None,1,flowers,patricia,NA,0,yes,Your friend points to another member of the group which you cannot see and says: <br/><b>That sunflower is big.</b>,29,flowers,NA,0,NA,NA,graduated_high_school,big,English,female,NA,NA,You and your friend see the following:,1,1566829015908,NA,NA,1,NA,NA,custom_main_text2
355,Please rephrase your friend's comment.,NA,It is small relative to other,images/dog-parade-chihuahua.png,9,NA,NA,NA,None,1,dogs1,patricia,NA,1,yes,Your friend points to another member of the group which you cannot see and says: <br/><b>That one is small.</b>,29,dogs,NA,1,NA,NA,graduated_high_school,small,English,female,NA,NA,You and your friend see the following:,2,1566829015908,NA,NA,1,NA,NA,custom_main_text2
355,Please rephrase your friend's comment.,NA,It is big relative to other,images/fish-parade-basic.png,9,NA,NA,NA,None,1,fish,patricia,NA,0,yes,Your friend points to another member of the group which you cannot see and says: <br/><b>That swordfish is big.</b>,29,fish,NA,0,NA,NA,graduated_high_school,big,English,female,NA,NA,You and your friend see the following:,3,1566829015908,NA,NA,1,NA,NA,custom_main_text2
352,NA,dandelion,NA,NA,9,warmup/sunflower.png,dandelion,This is a,NA,1,flowers,Barbara,sunflower,NA,yes,Please label the pictures below.,25,NA,NA,NA,warmup/dandelion.jpg,flowers,graduated_college,NA,English,female,NA,flowers,NA,1,1566829102591,1,This is a,1,These are both,sunflower,warmup1
352,NA,swordfish,NA,NA,9,warmup/goldfish.png,swordfish,This is a,NA,1,fish,Barbara,goldfish,NA,yes,Please label the pictures below.,25,NA,NA,NA,warmup/swordfish.jpg,fish,graduated_college,NA,English,female,NA,fish,NA,2,1566829102591,1,This is a,1,These are both,goldfish,warmup1
352,NA,hummingbird,NA,NA,9,warmup/eagle.jpg,hummingbird,This is a,NA,1,birds,Barbara,eagle,NA,yes,Please label the pictures below.,25,NA,NA,NA,warmup/colibri.jpg,birds,graduated_college,NA,English,female,NA,birds,NA,3,1566829102591,1,This is an,1,These are both,eagle,warmup1
352,Please rephrase your friend's comment.,NA,It is small relative to other,images/fish-parade-basic.png,9,NA,NA,NA,NA,1,fish,Barbara,NA,0,yes,Your friend points to another member of the group which you cannot see and says: <br/><b>That one is small.</b>,25,fish,NA,1,NA,NA,graduated_college,small,English,female,NA,NA,You and your friend see the following:,1,1566829102591,NA,NA,1,NA,NA,custom_main_text1
352,Please rephrase your friend's comment.,NA,It is big relative to other,images/bird-parade-basic.png,9,NA,NA,NA,NA,1,birds,Barbara,NA,0,yes,Your friend points to another member of the group which you cannot see and says: <br/><b> That eagle is big.</b>,25,eagles,NA,0,NA,NA,graduated_college,big,English,female,NA,NA,You and your friend see the following:,2,1566829102591,NA,NA,1,NA,NA,custom_main_text1
352,Please rephrase your friend's comment.,NA,It is small relative to other,images/flower-parade-dandelion.png,9,NA,NA,NA,NA,1,flowers,Barbara,NA,1,yes,Your friend points to another member of the group which you cannot see and says: <br/><b>That dandelion is small.</b>,25,dandelions,NA,0,NA,NA,graduated_college,small,English,female,NA,NA,You and your friend see the following:,3,1566829102591,NA,NA,1,NA,NA,custom_main_text1
352,NA,sequoia,NA,NA,9,warmup/bonsai.jpg,redwood|sequoia,This is a,NA,1,trees,Barbara,bonsai,NA,yes,Please label the pictures below.,25,NA,NA,NA,warmup/sequoia.jpg,trees,graduated_college,NA,English,female,NA,trees,NA,1,1566829102591,1,This is a,1,These are both,bonsai,warmup2
352,NA,pug,NA,NA,9,warmup/great-dane.jpg,pug,This is a,NA,1,dogs,Barbara,great dane,NA,yes,Please label the pictures below.,25,NA,NA,NA,warmup/pug.jpg,dogs,graduated_college,NA,English,female,NA,dogs,NA,2,1566829102591,1,This is a,1,These are both,great dane,warmup2
352,NA,Chihuahua,NA,NA,9,warmup/doberman.png,chihuahua,This is a,NA,1,dogs,Barbara,doberman,NA,yes,Please label the pictures below.,25,NA,NA,NA,warmup/chihuahua.jpg,dogs,graduated_college,NA,English,female,NA,dogs,NA,3,1566829102591,1,This is a,1,These are both,doberman,warmup2
352,Please rephrase your friend's comment.,NA,It is big relative to other,images/tree-parade-basic.png,9,NA,NA,NA,NA,1,trees,Barbara,NA,0,yes,Your friend points to another member of the group which you cannot see and says: <br/><b>That one is big.</b>,25,trees,NA,1,NA,NA,graduated_college,big,English,female,NA,NA,You and your friend see the following:,1,1566829102591,NA,NA,1,NA,NA,custom_main_text2
352,Please rephrase your friend's comment.,NA,It is small relative to other,images/dog-parade-chihuahua.png,9,NA,NA,NA,NA,1,dogs1,Barbara,NA,1,yes,Your friend points to another member of the group which you cannot see and says: <br/><b>That one is small.</b>,25,chihuahuas,NA,1,NA,NA,graduated_college,small,English,female,NA,NA,You and your friend see the following:,2,1566829102591,NA,NA,1,NA,NA,custom_main_text2
352,Please rephrase your friend's comment.,NA,It is big relative to other,images/dog-parade-great-dane.png,9,NA,NA,NA,NA,1,dogs2,Barbara,NA,1,yes,Your friend points to another member of the group which you cannot see and says: <br/><b>That great dane is big.</b>,25,great danes,NA,0,NA,NA,graduated_college,big,English,female,NA,NA,You and your friend see the following:,3,1566829102591,NA,NA,1,NA,NA,custom_main_text2
351,NA,humming bird,NA,NA,9,warmup/eagle.jpg,hummingbird,This is a,no,2,birds,susan,eagle,NA,confused,Please label the pictures below.,35,NA,I wasn't sure what was being looked for when it stated the picture was either bigger or smaller relative to other...,NA,warmup/colibri.jpg,birds,some_college,NA,English,female,NA,birds,NA,1,1566828866120,1,This is an,1,These are both,eagle,warmup1
351,NA,hummingbird,NA,NA,9,warmup/eagle.jpg,hummingbird,This is a,no,2,birds,susan,eagle,NA,confused,Please label the pictures below.,35,NA,I wasn't sure what was being looked for when it stated the picture was either bigger or smaller relative to other...,NA,warmup/colibri.jpg,birds,some_college,NA,English,female,NA,birds,NA,1,1566828866120,2,This is an,1,These are both,eagle,warmup1
351,NA,dandelion,NA,NA,9,warmup/sunflower.png,dandelion,This is a,no,2,flowers,susan,sunflower,NA,confused,Please label the pictures below.,35,NA,I wasn't sure what was being looked for when it stated the picture was either bigger or smaller relative to other...,NA,warmup/dandelion.jpg,flowers,some_college,NA,English,female,NA,flowers,NA,2,1566828866120,1,This is a,1,These are both,sunflower,warmup1
351,NA,tree,NA,NA,9,warmup/bonsai.jpg,redwood|sequoia,This is a,no,2,trees,susan,bonsai,NA,confused,Please label the pictures below.,35,NA,I wasn't sure what was being looked for when it stated the picture was either bigger or smaller relative to other...,NA,warmup/sequoia.jpg,trees,some_college,NA,English,female,NA,trees,NA,3,1566828866120,1,This is a,1,These are both,bonsai,warmup1
351,NA,redwood,NA,NA,9,warmup/bonsai.jpg,redwood|sequoia,This is a,no,2,trees,susan,bonsai,NA,confused,Please label the pictures below.,35,NA,I wasn't sure what was being looked for when it stated the picture was either bigger or smaller relative to other...,NA,warmup/sequoia.jpg,trees,some_college,NA,English,female,NA,trees,NA,3,1566828866120,2,This is a,1,These are both,bonsai,warmup1
351,Please rephrase your friend's comment.,NA,It is small relative to other,images/flower-parade-dandelion.png,9,NA,NA,NA,no,2,flowers,susan,NA,1,confused,Your friend points to another member of the group which you cannot see and says: <br/><b>That one is small.</b>,35,ones,I wasn't sure what was being looked for when it stated the picture was either bigger or smaller relative to other...,1,NA,NA,some_college,small,English,female,NA,NA,You and your friend see the following:,1,1566828866120,NA,NA,1,NA,NA,custom_main_text1
351,Please rephrase your friend's comment.,NA,It is small relative to other,images/bird-parade-hummingbird.png,9,NA,NA,NA,no,2,birds,susan,NA,1,confused,Your friend points to another member of the group which you cannot see and says: <br/><b> That hummingbird is small.</b>,35,ones,I wasn't sure what was being looked for when it stated the picture was either bigger or smaller relative to other...,0,NA,NA,some_college,small,English,female,NA,NA,You and your friend see the following:,2,1566828866120,NA,NA,1,NA,NA,custom_main_text1
351,Please rephrase your friend's comment.,NA,It is big relative to other,images/tree-parade-basic.png,9,NA,NA,NA,no,2,trees,susan,NA,0,confused,Your friend points to another member of the group which you cannot see and says: <br/><b>That redwood is big.</b>,35,trees,I wasn't sure what was being looked for when it stated the picture was either bigger or smaller relative to other...,0,NA,NA,some_college,big,English,female,NA,NA,You and your friend see the following:,3,1566828866120,NA,NA,1,NA,NA,custom_main_text1
351,NA,sword fish,NA,NA,9,warmup/goldfish.png,swordfish,This is a,no,2,fish,susan,goldfish,NA,confused,Please label the pictures below.,35,NA,I wasn't sure what was being looked for when it stated the picture was either bigger or smaller relative to other...,NA,warmup/swordfish.jpg,fish,some_college,NA,English,female,NA,fish,NA,1,1566828866120,1,This is a,1,These are both,gold fish,warmup2
351,NA,swordfish,NA,NA,9,warmup/goldfish.png,swordfish,This is a,no,2,fish,susan,goldfish,NA,confused,Please label the pictures below.,35,NA,I wasn't sure what was being looked for when it stated the picture was either bigger or smaller relative to other...,NA,warmup/swordfish.jpg,fish,some_college,NA,English,female,NA,fish,NA,1,1566828866120,2,This is a,1,These are both,goldfish,warmup2
351,NA,cuiusa,NA,NA,9,warmup/doberman.png,chihuahua,This is a,no,2,dogs,susan,doberman,NA,confused,Please label the pictures below.,35,NA,I wasn't sure what was being looked for when it stated the picture was either bigger or smaller relative to other...,NA,warmup/chihuahua.jpg,dogs,some_college,NA,English,female,NA,dogs,NA,2,1566828866120,1,This is a,1,These are both,pincher,warmup2
351,NA,chihuahua,NA,NA,9,warmup/doberman.png,chihuahua,This is a,no,2,dogs,susan,doberman,NA,confused,Please label the pictures below.,35,NA,I wasn't sure what was being looked for when it stated the picture was either bigger or smaller relative to other...,NA,warmup/chihuahua.jpg,dogs,some_college,NA,English,female,NA,dogs,NA,2,1566828866120,2,This is a,1,These are both,doberman,warmup2
351,NA,bulldog,NA,NA,9,warmup/great-dane.jpg,pug,This is a,no,2,dogs,susan,great dane,NA,confused,Please label the pictures below.,35,NA,I wasn't sure what was being looked for when it stated the picture was either bigger or smaller relative to other...,NA,warmup/pug.jpg,dogs,some_college,NA,English,female,NA,dogs,NA,3,1566828866120,1,This is a,1,These are both,greyhound,warmup2
351,NA,pug,NA,NA,9,warmup/great-dane.jpg,pug,This is a,no,2,dogs,susan,great dane,NA,confused,Please label the pictures below.,35,NA,I wasn't sure what was being looked for when it stated the picture was either bigger or smaller relative to other...,NA,warmup/pug.jpg,dogs,some_college,NA,English,female,NA,dogs,NA,3,1566828866120,2,This is a,1,These are both,great dane,warmup2
351,Please rephrase your friend's comment.,NA,It is big relative to other,images/dog-parade-doberman.png,9,NA,NA,NA,no,2,dogs1,susan,NA,1,confused,Your friend points to another member of the group which you cannot see and says: <br/><b>That doberman is big.</b>,35,dogs,I wasn't sure what was being looked for when it stated the picture was either bigger or smaller relative to other...,0,NA,NA,some_college,big,English,female,NA,NA,You and your friend see the following:,1,1566828866120,NA,NA,1,NA,NA,custom_main_text2
351,Please rephrase your friend's comment.,NA,It is big relative to other,images/dog-parade-basic2.png,9,NA,NA,NA,no,2,dogs2,susan,NA,0,confused,Your friend points to another member of the group which you cannot see and says: <br/><b>That one is big.</b>,35,dogs,I wasn't sure what was being looked for when it stated the picture was either bigger or smaller relative to other...,1,NA,NA,some_college,big,English,female,NA,NA,You and your friend see the following:,2,1566828866120,NA,NA,1,NA,NA,custom_main_text2
351,Please rephrase your friend's comment.,NA,It is small relative to other,images/fish-parade-basic.png,9,NA,NA,NA,no,2,fish,susan,NA,0,confused,Your friend points to another member of the group which you cannot see and says: <br/><b>That one is small.</b>,35,fish,I wasn't sure what was being looked for when it stated the picture was either bigger or smaller relative to other...,1,NA,NA,some_college,small,English,female,NA,NA,You and your friend see the following:,3,1566828866120,NA,NA,1,NA,NA,custom_main_text2
348,NA,sequoia,NA,NA,9,warmup/bonsai.jpg,redwood|sequoia,This is a,NA,1,trees,elizabeth,bonsai,NA,yes,Please label the pictures below.,25,NA,NA,NA,warmup/sequoia.jpg,trees,graduated_college,NA,English,female,NA,trees,NA,1,1566828934308,1,This is a,1,These are both,bonsai,warmup1
348,NA,pug,NA,NA,9,warmup/great-dane.jpg,pug,This is a,NA,1,dogs,elizabeth,great dane,NA,yes,Please label the pictures below.,25,NA,NA,NA,warmup/pug.jpg,dogs,graduated_college,NA,English,female,NA,dogs,NA,2,1566828934308,1,This is a,1,These are both,dane,warmup1
348,NA,pug,NA,NA,9,warmup/great-dane.jpg,pug,This is a,NA,1,dogs,elizabeth,great dane,NA,yes,Please label the pictures below.,25,NA,NA,NA,warmup/pug.jpg,dogs,graduated_college,NA,English,female,NA,dogs,NA,2,1566828934308,2,This is a,1,These are both,great dane,warmup1
348,NA,daisy,NA,NA,9,warmup/sunflower.png,dandelion,This is a,NA,1,flowers,elizabeth,sunflower,NA,yes,Please label the pictures below.,25,NA,NA,NA,warmup/dandelion.jpg,flowers,graduated_college,NA,English,female,NA,flowers,NA,3,1566828934308,1,This is a,1,These are both,sunflower,warmup1
348,NA,dandelion,NA,NA,9,warmup/sunflower.png,dandelion,This is a,NA,1,flowers,elizabeth,sunflower,NA,yes,Please label the pictures below.,25,NA,NA,NA,warmup/dandelion.jpg,flowers,graduated_college,NA,English,female,NA,flowers,NA,3,1566828934308,2,This is a,1,These are both,sunflower,warmup1
348,Please rephrase your friend's comment.,NA,It is big relative to other,images/dog-parade-great-dane.png,9,NA,NA,NA,NA,1,dogs2,elizabeth,NA,1,yes,Your friend points to another member of the group which you cannot see and says: <br/><b>That one is big.</b>,25,dogs,NA,1,NA,NA,graduated_college,big,English,female,NA,NA,You and your friend see the following:,1,1566828934308,NA,NA,1,NA,NA,custom_main_text1
348,Please rephrase your friend's comment.,NA,It is small relative to other,images/flower-parade-basic.png,9,NA,NA,NA,NA,1,flowers,elizabeth,NA,0,yes,Your friend points to another member of the group which you cannot see and says: <br/><b>That one is small.</b>,25,flowers,NA,1,NA,NA,graduated_college,small,English,female,NA,NA,You and your friend see the following:,2,1566828934308,NA,NA,1,NA,NA,custom_main_text1
348,Please rephrase your friend's comment.,NA,It is big relative to other,images/tree-parade-redwood.png,9,NA,NA,NA,NA,1,trees,elizabeth,NA,1,yes,Your friend points to another member of the group which you cannot see and says: <br/><b>That redwood is big.</b>,25,redwoods,NA,0,NA,NA,graduated_college,big,English,female,NA,NA,You and your friend see the following:,3,1566828934308,NA,NA,1,NA,NA,custom_main_text1
348,NA,hummingbird,NA,NA,9,warmup/eagle.jpg,hummingbird,This is a,NA,1,birds,elizabeth,eagle,NA,yes,Please label the pictures below.,25,NA,NA,NA,warmup/colibri.jpg,birds,graduated_college,NA,English,female,NA,birds,NA,1,1566828934308,1,This is an,1,These are both,eagle,warmup2
348,NA,Chihuahua,NA,NA,9,warmup/doberman.png,chihuahua,This is a,NA,1,dogs,elizabeth,doberman,NA,yes,Please label the pictures below.,25,NA,NA,NA,warmup/chihuahua.jpg,dogs,graduated_college,NA,English,female,NA,dogs,NA,2,1566828934308,1,This is a,1,These are both,great dane,warmup2
348,NA,Chihuahua,NA,NA,9,warmup/doberman.png,chihuahua,This is a,NA,1,dogs,elizabeth,doberman,NA,yes,Please label the pictures below.,25,NA,NA,NA,warmup/chihuahua.jpg,dogs,graduated_college,NA,English,female,NA,dogs,NA,2,1566828934308,2,This is a,1,These are both,doberman,warmup2
348,NA,swordfish,NA,NA,9,warmup/goldfish.png,swordfish,This is a,NA,1,fish,elizabeth,goldfish,NA,yes,Please label the pictures below.,25,NA,NA,NA,warmup/swordfish.jpg,fish,graduated_college,NA,English,female,NA,fish,NA,3,1566828934308,1,This is a,1,These are both,goldfish,warmup2
348,Please rephrase your friend's comment.,NA,It is small relative to other,images/fish-parade-basic.png,9,NA,NA,NA,NA,1,fish,elizabeth,NA,0,yes,Your friend points to another member of the group which you cannot see and says: <br/><b>That one is small.</b>,25,fish,NA,1,NA,NA,graduated_college,small,English,female,NA,NA,You and your friend see the following:,1,1566828934308,NA,NA,1,NA,NA,custom_main_text2
348,Please rephrase your friend's comment.,NA,It is small relative to other,images/bird-parade-hummingbird.png,9,NA,NA,NA,NA,1,birds,elizabeth,NA,1,yes,Your friend points to another member of the group which you cannot see and says: <br/><b> That hummingbird is small.</b>,25,hummingbirds,NA,0,NA,NA,graduated_college,small,English,female,NA,NA,You and your friend see the following:,2,1566828934308,NA,NA,1,NA,NA,custom_main_text2
348,Please rephrase your friend's comment.,NA,It is big relative to other,images/dog-parade-basic.png,9,NA,NA,NA,NA,1,dogs1,elizabeth,NA,0,yes,Your friend points to another member of the group which you cannot see and says: <br/><b>That doberman is big.</b>,25,dobermans,NA,0,NA,NA,graduated_college,big,English,female,NA,NA,You and your friend see the following:,3,1566828934308,NA,NA,1,NA,NA,custom_main_text2
347,NA,tree,NA,NA,9,warmup/bonsai.jpg,redwood|sequoia,This is a,NA,1,trees,elizabeth,bonsai,NA,yes,Please label the pictures below.,25,NA,NA,NA,warmup/sequoia.jpg,trees,graduated_college,NA,English,male,NA,trees,NA,1,1566828863137,1,This is a,1.1,These are both,tree,warmup1
347,NA,tree,NA,NA,9,warmup/bonsai.jpg,redwood|sequoia,This is a,NA,1,trees,elizabeth,bonsai,NA,yes,Please label the pictures below.,25,NA,NA,NA,warmup/sequoia.jpg,trees,graduated_college,NA,English,male,NA,trees,NA,1,1566828863137,2,This is a,1.1,These are both,tree,warmup1
347,NA,redwood,NA,NA,9,warmup/bonsai.jpg,redwood|sequoia,This is a,NA,1,trees,elizabeth,bonsai,NA,yes,Please label the pictures below.,25,NA,NA,NA,warmup/sequoia.jpg,trees,graduated_college,NA,English,male,NA,trees,NA,1,1566828863137,3,This is a,1.1,These are both,bonsai,warmup1
347,NA,pug,NA,NA,9,warmup/great-dane.jpg,pug,This is a,NA,1,dogs,elizabeth,great dane,NA,yes,Please label the pictures below.,25,NA,NA,NA,warmup/pug.jpg,dogs,graduated_college,NA,English,male,NA,dogs,NA,2,1566828863137,1,This is a,1.1,These are both,great dane,warmup1
347,NA,hummingbird,NA,NA,9,warmup/eagle.jpg,hummingbird,This is a,NA,1,birds,elizabeth,eagle,NA,yes,Please label the pictures below.,25,NA,NA,NA,warmup/colibri.jpg,birds,graduated_college,NA,English,male,NA,birds,NA,3,1566828863137,1,This is an,1.1,These are both,eagle,warmup1
347,Please rephrase your friend's comment.,NA,It is small relative to other,images/tree-parade-basic.png,9,NA,NA,NA,NA,1,trees,elizabeth,NA,0,yes,Your friend points to another member of the group which you cannot see and says: <br/><b>That one is small.</b>,25,trees,NA,1,NA,NA,graduated_college,small,English,male,NA,NA,You and your friend see the following:,1,1566828863137,NA,NA,1.1,NA,NA,custom_main_text1
347,Please rephrase your friend's comment.,NA,It is small relative to other,images/dog-parade-basic2.png,9,NA,NA,NA,NA,1,dogs2,elizabeth,NA,0,yes,Your friend points to another member of the group which you cannot see and says: <br/><b>That one is small.</b>,25,large dogs,NA,1,NA,NA,graduated_college,small,English,male,NA,NA,You and your friend see the following:,2,1566828863137,NA,NA,1.1,NA,NA,custom_main_text1
347,Please rephrase your friend's comment.,NA,It is big relative to other,images/bird-parade-eagle.png,9,NA,NA,NA,NA,1,birds,elizabeth,NA,1,yes,Your friend points to another member of the group which you cannot see and says: <br/><b> That one is big.</b>,25,eagles,NA,1,NA,NA,graduated_college,big,English,male,NA,NA,You and your friend see the following:,3,1566828863137,NA,NA,1.1,NA,NA,custom_main_text1
347,NA,swordfish,NA,NA,9,warmup/goldfish.png,swordfish,This is a,NA,1,fish,elizabeth,goldfish,NA,yes,Please label the pictures below.,25,NA,NA,NA,warmup/swordfish.jpg,fish,graduated_college,NA,English,male,NA,fish,NA,1,1566828863137,1,This is a,1.1,These are both,goldfish,warmup2
347,NA,dandelion,NA,NA,9,warmup/sunflower.png,dandelion,This is a,NA,1,flowers,elizabeth,sunflower,NA,yes,Please label the pictures below.,25,NA,NA,NA,warmup/dandelion.jpg,flowers,graduated_college,NA,English,male,NA,flowers,NA,2,1566828863137,1,This is a,1.1,These are both,sunflower,warmup2
347,NA,chihuaha,NA,NA,9,warmup/doberman.png,chihuahua,This is a,NA,1,dogs,elizabeth,doberman,NA,yes,Please label the pictures below.,25,NA,NA,NA,warmup/chihuahua.jpg,dogs,graduated_college,NA,English,male,NA,dogs,NA,3,1566828863137,1,This is a,1.1,These are both,doberman,warmup2
347,NA,chihuahua,NA,NA,9,warmup/doberman.png,chihuahua,This is a,NA,1,dogs,elizabeth,doberman,NA,yes,Please label the pictures below.,25,NA,NA,NA,warmup/chihuahua.jpg,dogs,graduated_college,NA,English,male,NA,dogs,NA,3,1566828863137,2,This is a,1.1,These are both,doberman,warmup2
347,Please rephrase your friend's comment.,NA,It is small relative to other,images/dog-parade-basic.png,9,NA,NA,NA,NA,1,dogs1,elizabeth,NA,0,yes,Your friend points to another member of the group which you cannot see and says: <br/><b>That chihuahua is small.</b>,25,dogs,NA,0,NA,NA,graduated_college,small,English,male,NA,NA,You and your friend see the following:,1,1566828863137,NA,NA,1.1,NA,NA,custom_main_text2
347,Please rephrase your friend's comment.,NA,It is big relative to other,images/fish-parade-swordfish.png,9,NA,NA,NA,NA,1,fish,elizabeth,NA,1,yes,Your friend points to another member of the group which you cannot see and says: <br/><b>That swordfish is big.</b>,25,swordfish,NA,0,NA,NA,graduated_college,big,English,male,NA,NA,You and your friend see the following:,2,1566828863137,NA,NA,1.1,NA,NA,custom_main_text2
347,Please rephrase your friend's comment.,NA,It is big relative to other,images/flower-parade-sunflower.png,9,NA,NA,NA,NA,1,flowers,elizabeth,NA,1,yes,Your friend points to another member of the group which you cannot see and says: <br/><b>That sunflower is big.</b>,25,sunflowers,NA,0,NA,NA,graduated_college,big,English,male,NA,NA,You and your friend see the following:,3,1566828863137,NA,NA,1.1,NA,NA,custom_main_text2
