submission_id,question,response1,sentence_left,context_picture,pic,experiment_id,picture2,correct1,question1,problems,enjoyment,item,botresponse,trials,correct2,pic_spec,understand,text,condition,sentence,age,response,comments,ref_spec,picture1,response3,education,target_size,name,languages,sex,RT,correct3,context,trial_number,startTime,attempts,question3,fairprice,question2,response2,correct,adj_cond,trial_name,utterance
708,<i>What do you think Speaker A meant? </i>,NA,The Empire State Building is tall relative to other,NA,NA,16,NA,NA,NA,no,2,NA,margaret,1,NA,NA,yes,NA,NA,"<b> Speaker A: ""The Empire State Building is tall.""</b>",28,buildings,NA,NA,NA,NA,graduated_college,NA,comp_class_warmup,english,female,NA,NA,In the main trials you will be asked to rephrase something a person said. The utterance will contain a word that is <i>relative</i> and your task is to figure out what it is relative to. <br /> <br /> For example: <br /><br />,1,1571855627215,1,NA,1,NA,NA,"buildings, skyscrapers, houses, constructions (choose one)",NA,comp_class_warmup,NA
708,NA,swordfish,NA,NA,NA,16,warmup/goldfish.png,swordfish,This is a,no,2,fish,margaret,NA,goldfish,NA,yes,Please label the pictures below.,NA,NA,28,NA,NA,NA,warmup/swordfish.jpg,fish,graduated_college,NA,NA,english,female,NA,fish,NA,1,1571855627215,1,This is a,1,These are both,goldfish,NA,NA,warmup1,NA
708,NA,small dog,NA,NA,NA,16,warmup/great-dane.jpg,pug,This is a,no,2,dogs,margaret,NA,great dane,NA,yes,Please label the pictures below.,NA,NA,28,NA,NA,NA,warmup/pug.jpg,dogs,graduated_college,NA,NA,english,female,NA,dogs,NA,2,1571855627215,1,This is a,1,These are both,big dog,NA,NA,warmup1,NA
708,NA,pug,NA,NA,NA,16,warmup/great-dane.jpg,pug,This is a,no,2,dogs,margaret,NA,great dane,NA,yes,Please label the pictures below.,NA,NA,28,NA,NA,NA,warmup/pug.jpg,dogs,graduated_college,NA,NA,english,female,NA,dogs,NA,2,1571855627215,2,This is a,1,These are both,great dane,NA,NA,warmup1,NA
708,NA,chiwawa,NA,NA,NA,16,warmup/doberman.png,chihuahua,This is a,no,2,dogs,margaret,NA,doberman,NA,yes,Please label the pictures below.,NA,NA,28,NA,NA,NA,warmup/chihuahua.jpg,dogs,graduated_college,NA,NA,english,female,NA,dogs,NA,3,1571855627215,1,This is a,1,These are both,big dog,NA,NA,warmup1,NA
708,NA,chihuahua,NA,NA,NA,16,warmup/doberman.png,chihuahua,This is a,no,2,dogs,margaret,NA,doberman,NA,yes,Please label the pictures below.,NA,NA,28,NA,NA,NA,warmup/chihuahua.jpg,dogs,graduated_college,NA,NA,english,female,NA,dogs,NA,3,1571855627215,2,This is a,1,These are both,doberman,NA,NA,warmup1,NA
708,What do you think your friend meant?,NA,It is small relative to other,images/dog-parade-pug.png,images/pug.png,16,NA,NA,NA,no,2,dogs2,margaret,NA,NA,1,yes,"Your friend runs far ahead of you, and you see him in the distance:",predicative,NA,28,dogs,NA,2,NA,NA,graduated_college,small,NA,english,female,NA,NA,You and your friend see the following:,1,1571855627215,NA,NA,1,NA,NA,NA,congr,custom_main_text1,Your friend says: <br/><b>That one is small.</b>
708,What do you think your friend meant?,NA,It is big relative to other,images/dog-parade-basic.png,images/doberman.png,16,NA,NA,NA,no,2,dogs1,margaret,NA,NA,0,yes,"Your friend runs far ahead of you, and you see him in the distance:",predicative,NA,28,dogs,NA,2,NA,NA,graduated_college,big,NA,english,female,NA,NA,You and your friend see the following:,2,1571855627215,NA,NA,1,NA,NA,NA,basic,custom_main_text1,Your friend says: <br/><b>That one is big.</b>
708,What do you think your friend meant?,NA,It is small relative to other,images/fish-parade-goldfish.png,images/goldfish.png,16,NA,NA,NA,no,2,fish,margaret,NA,NA,1,yes,"Your friend runs far ahead of you, and you see him in the distance:",predicative,NA,28,fish,NA,2,NA,NA,graduated_college,small,NA,english,female,NA,NA,You and your friend see the following:,3,1571855627215,NA,NA,1,NA,NA,NA,congr,custom_main_text1,Your friend says: <br/><b>That one is small.</b>
708,NA,oak tree,NA,NA,NA,16,warmup/bonsai.jpg,redwood or sequoia (choose one),This is a,no,2,trees,margaret,NA,bonsai,NA,yes,Please label the pictures below.,NA,NA,28,NA,NA,NA,warmup/sequoia.png,trees,graduated_college,NA,NA,english,female,NA,trees,NA,1,1571855627215,1,This is a,1,These are both,small tree,NA,NA,warmup2,NA
708,NA,redwood,NA,NA,NA,16,warmup/bonsai.jpg,redwood or sequoia (choose one),This is a,no,2,trees,margaret,NA,bonsai,NA,yes,Please label the pictures below.,NA,NA,28,NA,NA,NA,warmup/sequoia.png,trees,graduated_college,NA,NA,english,female,NA,trees,NA,1,1571855627215,2,This is a,1,These are both,bonsai,NA,NA,warmup2,NA
708,NA,hummingbird,NA,NA,NA,16,warmup/eagle.jpg,hummingbird,This is a,no,2,birds,margaret,NA,eagle,NA,yes,Please label the pictures below.,NA,NA,28,NA,NA,NA,warmup/colibri.jpg,birds,graduated_college,NA,NA,english,female,NA,birds,NA,2,1571855627215,1,This is an,1,These are both,eagle,NA,NA,warmup2,NA
708,NA,dandelian,NA,NA,NA,16,warmup/sunflower.png,dandelion,This is a,no,2,flowers,margaret,NA,sunflower,NA,yes,Please label the pictures below.,NA,NA,28,NA,NA,NA,warmup/dandelion.jpg,flowers,graduated_college,NA,NA,english,female,NA,flowers,NA,3,1571855627215,1,This is a,1,These are both,sunflower,NA,NA,warmup2,NA
708,NA,dandelion,NA,NA,NA,16,warmup/sunflower.png,dandelion,This is a,no,2,flowers,margaret,NA,sunflower,NA,yes,Please label the pictures below.,NA,NA,28,NA,NA,NA,warmup/dandelion.jpg,flowers,graduated_college,NA,NA,english,female,NA,flowers,NA,3,1571855627215,2,This is a,1,These are both,sunflower,NA,NA,warmup2,NA
708,What do you think your friend meant?,NA,It is big relative to other,images/flower-parade-sunflower.png,images/sunflower.png,16,NA,NA,NA,no,2,flowers,margaret,NA,NA,1,yes,"Your friend runs far ahead of you, and you see him in the distance:",predicative,NA,28,flowers,NA,2,NA,NA,graduated_college,big,NA,english,female,NA,NA,You and your friend see the following:,1,1571855627215,NA,NA,1,NA,NA,NA,congr,custom_main_text2,Your friend says: <br/><b>That one is big.</b>
708,What do you think your friend meant?,NA,It is small relative to other,images/tree-parade-basic.png,images/bonsai.png,16,NA,NA,NA,no,2,trees,margaret,NA,NA,0,yes,"Your friend runs far ahead of you, and you see him in the distance:",predicative,NA,28,trees,NA,2,NA,NA,graduated_college,small,NA,english,female,NA,NA,You and your friend see the following:,2,1571855627215,NA,NA,1,NA,NA,NA,basic,custom_main_text2,Your friend says: <br/><b>That one is small.</b>
708,What do you think your friend meant?,NA,It is big relative to other,images/bird-parade-basic.png,images/eagle.png,16,NA,NA,NA,no,2,birds,margaret,NA,NA,0,yes,"Your friend runs far ahead of you, and you see him in the distance:",predicative,NA,28,birds,NA,2,NA,NA,graduated_college,big,NA,english,female,NA,NA,You and your friend see the following:,3,1571855627215,NA,NA,1,NA,NA,NA,basic,custom_main_text2,Your friend says: <br/><b>That one is big.</b>
706,<i>What do you think Speaker A meant? </i>,NA,The Empire State Building is tall relative to other,NA,NA,16,NA,NA,NA,N/A,1,NA,Margaret,1,NA,NA,yes,NA,NA,"<b> Speaker A: ""The Empire State Building is tall.""</b>",32,buildings,N/A,NA,NA,NA,graduated_college,NA,comp_class_warmup,English,male,NA,NA,In the main trials you will be asked to rephrase something a person said. The utterance will contain a word that is <i>relative</i> and your task is to figure out what it is relative to. <br /> <br /> For example: <br /><br />,1,1571854851202,1,NA,2,NA,NA,"buildings, skyscrapers, houses, constructions (choose one)",NA,comp_class_warmup,NA
706,NA,small dog,NA,NA,NA,16,warmup/doberman.png,chihuahua,This is a,N/A,1,dogs,Margaret,NA,doberman,NA,yes,Please label the pictures below.,NA,NA,32,NA,N/A,NA,warmup/chihuahua.jpg,dogs,graduated_college,NA,NA,English,male,NA,dogs,NA,1,1571854851202,1,This is a,2,These are both,large dog,NA,NA,warmup1,NA
706,NA,chihuahua,NA,NA,NA,16,warmup/doberman.png,chihuahua,This is a,N/A,1,dogs,Margaret,NA,doberman,NA,yes,Please label the pictures below.,NA,NA,32,NA,N/A,NA,warmup/chihuahua.jpg,dogs,graduated_college,NA,NA,English,male,NA,dogs,NA,1,1571854851202,2,This is a,2,These are both,doberman,NA,NA,warmup1,NA
706,NA,hummingbird,NA,NA,NA,16,warmup/eagle.jpg,hummingbird,This is a,N/A,1,birds,Margaret,NA,eagle,NA,yes,Please label the pictures below.,NA,NA,32,NA,N/A,NA,warmup/colibri.jpg,birds,graduated_college,NA,NA,English,male,NA,birds,NA,2,1571854851202,1,This is an,2,These are both,eagle,NA,NA,warmup1,NA
706,NA,daisy,NA,NA,NA,16,warmup/sunflower.png,dandelion,This is a,N/A,1,flowers,Margaret,NA,sunflower,NA,yes,Please label the pictures below.,NA,NA,32,NA,N/A,NA,warmup/dandelion.jpg,flowers,graduated_college,NA,NA,English,male,NA,flowers,NA,3,1571854851202,1,This is a,2,These are both,sunflower,NA,NA,warmup1,NA
706,NA,dandelion,NA,NA,NA,16,warmup/sunflower.png,dandelion,This is a,N/A,1,flowers,Margaret,NA,sunflower,NA,yes,Please label the pictures below.,NA,NA,32,NA,N/A,NA,warmup/dandelion.jpg,flowers,graduated_college,NA,NA,English,male,NA,flowers,NA,3,1571854851202,2,This is a,2,These are both,sunflower,NA,NA,warmup1,NA
706,What do you think your friend meant?,NA,It is small relative to other,images/flower-parade-basic.png,images/dandelion.png,16,NA,NA,NA,N/A,1,flowers,Margaret,NA,NA,0,yes,"Your friend runs far ahead of you, and you see him in the distance:",predicative,NA,32,flowers,N/A,2,NA,NA,graduated_college,small,NA,English,male,NA,NA,You and your friend see the following:,1,1571854851202,NA,NA,2,NA,NA,NA,basic,custom_main_text1,Your friend says: <br/><b>That one is small.</b>
706,What do you think your friend meant?,NA,It is small relative to other,images/dog-parade-basic.png,images/chihuahua.png,16,NA,NA,NA,N/A,1,dogs1,Margaret,NA,NA,0,yes,"Your friend runs far ahead of you, and you see him in the distance:",predicative,NA,32,dogs,N/A,2,NA,NA,graduated_college,small,NA,English,male,NA,NA,You and your friend see the following:,2,1571854851202,NA,NA,2,NA,NA,NA,basic,custom_main_text1,Your friend says: <br/><b>That one is small.</b>
706,What do you think your friend meant?,NA,It is big relative to other,images/bird-parade-eagle.png,images/eagle.png,16,NA,NA,NA,N/A,1,birds,Margaret,NA,NA,1,yes,"Your friend runs far ahead of you, and you see him in the distance:",predicative,NA,32,eagles,N/A,2,NA,NA,graduated_college,big,NA,English,male,NA,NA,You and your friend see the following:,3,1571854851202,NA,NA,2,NA,NA,NA,congr,custom_main_text1,Your friend says: <br/><b>That one is big.</b>
706,NA,pug,NA,NA,NA,16,warmup/great-dane.jpg,pug,This is a,N/A,1,dogs,Margaret,NA,great dane,NA,yes,Please label the pictures below.,NA,NA,32,NA,N/A,NA,warmup/pug.jpg,dogs,graduated_college,NA,NA,English,male,NA,dogs,NA,1,1571854851202,1,This is a,2,These are both,labrador,NA,NA,warmup2,NA
706,NA,pug,NA,NA,NA,16,warmup/great-dane.jpg,pug,This is a,N/A,1,dogs,Margaret,NA,great dane,NA,yes,Please label the pictures below.,NA,NA,32,NA,N/A,NA,warmup/pug.jpg,dogs,graduated_college,NA,NA,English,male,NA,dogs,NA,1,1571854851202,2,This is a,2,These are both,great dane,NA,NA,warmup2,NA
706,NA,tree,NA,NA,NA,16,warmup/bonsai.jpg,redwood or sequoia (choose one),This is a,N/A,1,trees,Margaret,NA,bonsai,NA,yes,Please label the pictures below.,NA,NA,32,NA,N/A,NA,warmup/sequoia.png,plants,graduated_college,NA,NA,English,male,NA,trees,NA,2,1571854851202,1,This is a,2,These are both,shrub,NA,NA,warmup2,NA
706,NA,redwood,NA,NA,NA,16,warmup/bonsai.jpg,redwood or sequoia (choose one),This is a,N/A,1,trees,Margaret,NA,bonsai,NA,yes,Please label the pictures below.,NA,NA,32,NA,N/A,NA,warmup/sequoia.png,trees,graduated_college,NA,NA,English,male,NA,trees,NA,2,1571854851202,2,This is a,2,These are both,bonsai,NA,NA,warmup2,NA
706,NA,swordfish,NA,NA,NA,16,warmup/goldfish.png,swordfish,This is a,N/A,1,fish,Margaret,NA,goldfish,NA,yes,Please label the pictures below.,NA,NA,32,NA,N/A,NA,warmup/swordfish.jpg,fish,graduated_college,NA,NA,English,male,NA,fish,NA,3,1571854851202,1,This is a,2,These are both,goldfish,NA,NA,warmup2,NA
706,What do you think your friend meant?,NA,It is big relative to other,images/tree-parade-redwood.png,images/redwood.png,16,NA,NA,NA,N/A,1,trees,Margaret,NA,NA,1,yes,"Your friend runs far ahead of you, and you see him in the distance:",predicative,NA,32,trees,N/A,2,NA,NA,graduated_college,big,NA,English,male,NA,NA,You and your friend see the following:,1,1571854851202,NA,NA,2,NA,NA,NA,congr,custom_main_text2,Your friend says: <br/><b>That one is big.</b>
706,What do you think your friend meant?,NA,It is big relative to other,images/dog-parade-basic2.png,images/great-dane.png,16,NA,NA,NA,N/A,1,dogs2,Margaret,NA,NA,0,yes,"Your friend runs far ahead of you, and you see him in the distance:",predicative,NA,32,dogs,N/A,2,NA,NA,graduated_college,big,NA,English,male,NA,NA,You and your friend see the following:,2,1571854851202,NA,NA,2,NA,NA,NA,basic,custom_main_text2,Your friend says: <br/><b>That one is big.</b>
706,What do you think your friend meant?,NA,It is small relative to other,images/fish-parade-goldfish.png,images/goldfish.png,16,NA,NA,NA,N/A,1,fish,Margaret,NA,NA,1,yes,"Your friend runs far ahead of you, and you see him in the distance:",predicative,NA,32,goldfish,N/A,2,NA,NA,graduated_college,small,NA,English,male,NA,NA,You and your friend see the following:,3,1571854851202,NA,NA,2,NA,NA,NA,congr,custom_main_text2,Your friend says: <br/><b>That one is small.</b>
705,<i>What do you think Speaker A meant? </i>,NA,The Empire State Building is tall relative to other,NA,NA,16,NA,NA,NA,None,1,NA,jennifer,1,NA,NA,yes,NA,NA,"<b> Speaker A: ""The Empire State Building is tall.""</b>",31,buildings,NA,NA,NA,NA,graduated_college,NA,comp_class_warmup,English,male,NA,NA,In the main trials you will be asked to rephrase something a person said. The utterance will contain a word that is <i>relative</i> and your task is to figure out what it is relative to. <br /> <br /> For example: <br /><br />,1,1571854403200,1,NA,1,NA,NA,"buildings, skyscrapers, houses, constructions (choose one)",NA,comp_class_warmup,NA
705,NA,dandelion,NA,NA,NA,16,warmup/sunflower.png,dandelion,This is a,None,1,flowers,jennifer,NA,sunflower,NA,yes,Please label the pictures below.,NA,NA,31,NA,NA,NA,warmup/dandelion.jpg,flowers,graduated_college,NA,NA,English,male,NA,flowers,NA,1,1571854403200,1,This is a,1,These are both,sunflower,NA,NA,warmup1,NA
705,NA,pug,NA,NA,NA,16,warmup/great-dane.jpg,pug,This is a,None,1,dogs,jennifer,NA,great dane,NA,yes,Please label the pictures below.,NA,NA,31,NA,NA,NA,warmup/pug.jpg,dogs,graduated_college,NA,NA,English,male,NA,dogs,NA,2,1571854403200,1,This is a,1,These are both,dobermann,NA,NA,warmup1,NA
705,NA,pug,NA,NA,NA,16,warmup/great-dane.jpg,pug,This is a,None,1,dogs,jennifer,NA,great dane,NA,yes,Please label the pictures below.,NA,NA,31,NA,NA,NA,warmup/pug.jpg,dogs,graduated_college,NA,NA,English,male,NA,dogs,NA,2,1571854403200,2,This is a,1,These are both,great dane,NA,NA,warmup1,NA
705,NA,shark,NA,NA,NA,16,warmup/goldfish.png,swordfish,This is a,None,1,fish,jennifer,NA,goldfish,NA,yes,Please label the pictures below.,NA,NA,31,NA,NA,NA,warmup/swordfish.jpg,fishes,graduated_college,NA,NA,English,male,NA,fish,NA,3,1571854403200,1,This is a,1,These are both,gold fish,NA,NA,warmup1,NA
705,NA,swordfish,NA,NA,NA,16,warmup/goldfish.png,swordfish,This is a,None,1,fish,jennifer,NA,goldfish,NA,yes,Please label the pictures below.,NA,NA,31,NA,NA,NA,warmup/swordfish.jpg,fish,graduated_college,NA,NA,English,male,NA,fish,NA,3,1571854403200,2,This is a,1,These are both,goldfish,NA,NA,warmup1,NA
705,What do you think your friend meant?,NA,It is small relative to other,images/fish-parade-basic.png,images/goldfish.png,16,NA,NA,NA,None,1,fish,jennifer,NA,NA,0,yes,"Your friend runs far ahead of you, and you see him in the distance:",predicative,NA,31,fish,NA,2,NA,NA,graduated_college,small,NA,English,male,NA,NA,You and your friend see the following:,1,1571854403200,NA,NA,1,NA,NA,NA,basic,custom_main_text1,Your friend says: <br/><b>That one is small.</b>
705,What do you think your friend meant?,NA,It is small relative to other,images/flower-parade-dandelion.png,images/dandelion.png,16,NA,NA,NA,None,1,flowers,jennifer,NA,NA,1,yes,"Your friend runs far ahead of you, and you see him in the distance:",predicative,NA,31,flower,NA,2,NA,NA,graduated_college,small,NA,English,male,NA,NA,You and your friend see the following:,2,1571854403200,NA,NA,1,NA,NA,NA,congr,custom_main_text1,Your friend says: <br/><b>That one is small.</b>
705,What do you think your friend meant?,NA,It is big relative to other,images/dog-parade-basic2.png,images/great-dane.png,16,NA,NA,NA,None,1,dogs2,jennifer,NA,NA,0,yes,"Your friend runs far ahead of you, and you see him in the distance:",predicative,NA,31,dog,NA,2,NA,NA,graduated_college,big,NA,English,male,NA,NA,You and your friend see the following:,3,1571854403200,NA,NA,1,NA,NA,NA,basic,custom_main_text1,Your friend says: <br/><b>That one is big.</b>
705,NA,hummingbird,NA,NA,NA,16,warmup/eagle.jpg,hummingbird,This is a,None,1,birds,jennifer,NA,eagle,NA,yes,Please label the pictures below.,NA,NA,31,NA,NA,NA,warmup/colibri.jpg,bird,graduated_college,NA,NA,English,male,NA,birds,NA,1,1571854403200,1,This is an,1,These are both,eagle,NA,NA,warmup2,NA
705,NA,hummingbird,NA,NA,NA,16,warmup/eagle.jpg,hummingbird,This is a,None,1,birds,jennifer,NA,eagle,NA,yes,Please label the pictures below.,NA,NA,31,NA,NA,NA,warmup/colibri.jpg,birds,graduated_college,NA,NA,English,male,NA,birds,NA,1,1571854403200,2,This is an,1,These are both,eagle,NA,NA,warmup2,NA
705,NA,sequoia,NA,NA,NA,16,warmup/bonsai.jpg,redwood or sequoia (choose one),This is a,None,1,trees,jennifer,NA,bonsai,NA,yes,Please label the pictures below.,NA,NA,31,NA,NA,NA,warmup/sequoia.png,trees,graduated_college,NA,NA,English,male,NA,trees,NA,2,1571854403200,1,This is a,1,These are both,bonsai,NA,NA,warmup2,NA
705,NA,chihuahua,NA,NA,NA,16,warmup/doberman.png,chihuahua,This is a,None,1,dogs,jennifer,NA,doberman,NA,yes,Please label the pictures below.,NA,NA,31,NA,NA,NA,warmup/chihuahua.jpg,dogs,graduated_college,NA,NA,English,male,NA,dogs,NA,3,1571854403200,1,This is a,1,These are both,weimaraner,NA,NA,warmup2,NA
705,NA,chihuahua,NA,NA,NA,16,warmup/doberman.png,chihuahua,This is a,None,1,dogs,jennifer,NA,doberman,NA,yes,Please label the pictures below.,NA,NA,31,NA,NA,NA,warmup/chihuahua.jpg,dogs,graduated_college,NA,NA,English,male,NA,dogs,NA,3,1571854403200,2,This is a,1,These are both,dobermann,NA,NA,warmup2,NA
705,NA,chihuahua,NA,NA,NA,16,warmup/doberman.png,chihuahua,This is a,None,1,dogs,jennifer,NA,doberman,NA,yes,Please label the pictures below.,NA,NA,31,NA,NA,NA,warmup/chihuahua.jpg,dogs,graduated_college,NA,NA,English,male,NA,dogs,NA,3,1571854403200,3,This is a,1,These are both,dobermann,NA,NA,warmup2,NA
705,NA,chihuahua,NA,NA,NA,16,warmup/doberman.png,chihuahua,This is a,None,1,dogs,jennifer,NA,doberman,NA,yes,Please label the pictures below.,NA,NA,31,NA,NA,NA,warmup/chihuahua.jpg,dogs,graduated_college,NA,NA,English,male,NA,dogs,NA,3,1571854403200,4,This is a,1,These are both,dobermann,NA,NA,warmup2,NA
705,NA,chihuahua,NA,NA,NA,16,warmup/doberman.png,chihuahua,This is a,None,1,dogs,jennifer,NA,doberman,NA,yes,Please label the pictures below.,NA,NA,31,NA,NA,NA,warmup/chihuahua.jpg,dogs,graduated_college,NA,NA,English,male,NA,dogs,NA,3,1571854403200,5,This is a,1,These are both,doberman,NA,NA,warmup2,NA
705,What do you think your friend meant?,NA,It is big relative to other,images/tree-parade-redwood.png,images/redwood.png,16,NA,NA,NA,None,1,trees,jennifer,NA,NA,1,yes,"Your friend runs far ahead of you, and you see him in the distance:",predicative,NA,31,trees,NA,2,NA,NA,graduated_college,big,NA,English,male,NA,NA,You and your friend see the following:,1,1571854403200,NA,NA,1,NA,NA,NA,congr,custom_main_text2,Your friend says: <br/><b>That one is big.</b>
705,What do you think your friend meant?,NA,It is big relative to other,images/bird-parade-eagle.png,images/eagle.png,16,NA,NA,NA,None,1,birds,jennifer,NA,NA,1,yes,"Your friend runs far ahead of you, and you see him in the distance:",predicative,NA,31,eagles,NA,2,NA,NA,graduated_college,big,NA,English,male,NA,NA,You and your friend see the following:,2,1571854403200,NA,NA,1,NA,NA,NA,congr,custom_main_text2,Your friend says: <br/><b>That one is big.</b>
705,What do you think your friend meant?,NA,It is small relative to other,images/dog-parade-basic.png,images/chihuahua.png,16,NA,NA,NA,None,1,dogs1,jennifer,NA,NA,0,yes,"Your friend runs far ahead of you, and you see him in the distance:",predicative,NA,31,dogs,NA,2,NA,NA,graduated_college,small,NA,English,male,NA,NA,You and your friend see the following:,3,1571854403200,NA,NA,1,NA,NA,NA,basic,custom_main_text2,Your friend says: <br/><b>That one is small.</b>
703,<i>What do you think Speaker A meant? </i>,NA,The Empire State Building is tall relative to other,NA,NA,16,NA,NA,NA,No,2,NA,Jessica,1,NA,NA,yes,NA,NA,"<b> Speaker A: ""The Empire State Building is tall.""</b>",53,buildings,NA,NA,NA,NA,some_college,NA,comp_class_warmup,English,male,NA,NA,In the main trials you will be asked to rephrase something a person said. The utterance will contain a word that is <i>relative</i> and your task is to figure out what it is relative to. <br /> <br /> For example: <br /><br />,1,1571853946575,1,NA,1,NA,NA,"buildings, skyscrapers, houses, constructions (choose one)",NA,comp_class_warmup,NA
703,NA,swordfish,NA,NA,NA,16,warmup/goldfish.png,swordfish,This is a,No,2,fish,Jessica,NA,goldfish,NA,yes,Please label the pictures below.,NA,NA,53,NA,NA,NA,warmup/swordfish.jpg,fish,some_college,NA,NA,English,male,NA,fish,NA,1,1571853946575,1,This is a,1,These are both,goldfish,NA,NA,warmup1,NA
703,NA,dandelion,NA,NA,NA,16,warmup/sunflower.png,dandelion,This is a,No,2,flowers,Jessica,NA,sunflower,NA,yes,Please label the pictures below.,NA,NA,53,NA,NA,NA,warmup/dandelion.jpg,flowers,some_college,NA,NA,English,male,NA,flowers,NA,2,1571853946575,1,This is a,1,These are both,sunflower,NA,NA,warmup1,NA
703,NA,Chihuahua,NA,NA,NA,16,warmup/doberman.png,chihuahua,This is a,No,2,dogs,Jessica,NA,doberman,NA,yes,Please label the pictures below.,NA,NA,53,NA,NA,NA,warmup/chihuahua.jpg,dogs,some_college,NA,NA,English,male,NA,dogs,NA,3,1571853946575,1,This is a,1,These are both,Doberman,NA,NA,warmup1,NA
703,What do you think your friend meant?,NA,It is small relative to other,images/flower-parade-dandelion.png,images/dandelion.png,16,NA,NA,NA,No,2,flowers,Jessica,NA,NA,1,yes,"Your friend runs far ahead of you, and you see him in the distance:",predicative,NA,53,flowers,NA,2,NA,NA,some_college,small,NA,English,male,NA,NA,You and your friend see the following:,1,1571853946575,NA,NA,1,NA,NA,NA,congr,custom_main_text1,Your friend says: <br/><b>That one is small.</b>
703,What do you think your friend meant?,NA,It is big relative to other,images/dog-parade-doberman.png,images/doberman.png,16,NA,NA,NA,No,2,dogs1,Jessica,NA,NA,1,yes,"Your friend runs far ahead of you, and you see him in the distance:",predicative,NA,53,dogs,NA,2,NA,NA,some_college,big,NA,English,male,NA,NA,You and your friend see the following:,2,1571853946575,NA,NA,1,NA,NA,NA,congr,custom_main_text1,Your friend says: <br/><b>That one is big.</b>
703,What do you think your friend meant?,NA,It is small relative to other,images/fish-parade-basic.png,images/goldfish.png,16,NA,NA,NA,No,2,fish,Jessica,NA,NA,0,yes,"Your friend runs far ahead of you, and you see him in the distance:",predicative,NA,53,fish,NA,2,NA,NA,some_college,small,NA,English,male,NA,NA,You and your friend see the following:,3,1571853946575,NA,NA,1,NA,NA,NA,basic,custom_main_text1,Your friend says: <br/><b>That one is small.</b>
703,NA,Pug,NA,NA,NA,16,warmup/great-dane.jpg,pug,This is a,No,2,dogs,Jessica,NA,great dane,NA,yes,Please label the pictures below.,NA,NA,53,NA,NA,NA,warmup/pug.jpg,dogs,some_college,NA,NA,English,male,NA,dogs,NA,1,1571853946575,1,This is a,1,These are both,Great Dane,NA,NA,warmup2,NA
703,NA,Evergreen,NA,NA,NA,16,warmup/bonsai.jpg,redwood or sequoia (choose one),This is a,No,2,trees,Jessica,NA,bonsai,NA,yes,Please label the pictures below.,NA,NA,53,NA,NA,NA,warmup/sequoia.png,trees,some_college,NA,NA,English,male,NA,trees,NA,2,1571853946575,1,This is a,1,These are both,Bonzai,NA,NA,warmup2,NA
703,NA,Redwood,NA,NA,NA,16,warmup/bonsai.jpg,redwood or sequoia (choose one),This is a,No,2,trees,Jessica,NA,bonsai,NA,yes,Please label the pictures below.,NA,NA,53,NA,NA,NA,warmup/sequoia.png,trees,some_college,NA,NA,English,male,NA,trees,NA,2,1571853946575,2,This is a,1,These are both,Bonsai,NA,NA,warmup2,NA
703,NA,Hummingbird,NA,NA,NA,16,warmup/eagle.jpg,hummingbird,This is a,No,2,birds,Jessica,NA,eagle,NA,yes,Please label the pictures below.,NA,NA,53,NA,NA,NA,warmup/colibri.jpg,birds,some_college,NA,NA,English,male,NA,birds,NA,3,1571853946575,1,This is an,1,These are both,Eagle,NA,NA,warmup2,NA
703,What do you think your friend meant?,NA,It is big relative to other,images/tree-parade-basic.png,images/redwood.png,16,NA,NA,NA,No,2,trees,Jessica,NA,NA,0,yes,"Your friend runs far ahead of you, and you see him in the distance:",predicative,NA,53,trees,NA,2,NA,NA,some_college,big,NA,English,male,NA,NA,You and your friend see the following:,1,1571853946575,NA,NA,1,NA,NA,NA,basic,custom_main_text2,Your friend says: <br/><b>That one is big.</b>
703,What do you think your friend meant?,NA,It is big relative to other,images/bird-parade-basic.png,images/eagle.png,16,NA,NA,NA,No,2,birds,Jessica,NA,NA,0,yes,"Your friend runs far ahead of you, and you see him in the distance:",predicative,NA,53,birds,NA,2,NA,NA,some_college,big,NA,English,male,NA,NA,You and your friend see the following:,2,1571853946575,NA,NA,1,NA,NA,NA,basic,custom_main_text2,Your friend says: <br/><b>That one is big.</b>
703,What do you think your friend meant?,NA,It is small relative to other,images/dog-parade-pug.png,images/pug.png,16,NA,NA,NA,No,2,dogs2,Jessica,NA,NA,1,yes,"Your friend runs far ahead of you, and you see him in the distance:",predicative,NA,53,dogs,NA,2,NA,NA,some_college,small,NA,English,male,NA,NA,You and your friend see the following:,3,1571853946575,NA,NA,1,NA,NA,NA,congr,custom_main_text2,Your friend says: <br/><b>That one is small.</b>
702,<i>What do you think Speaker A meant? </i>,NA,The Empire State Building is tall relative to other,NA,NA,16,NA,NA,NA,no,2,NA,Patricia,1,NA,NA,NA,NA,NA,"<b> Speaker A: ""The Empire State Building is tall.""</b>",31,buildings,NA,NA,NA,NA,graduated_college,NA,comp_class_warmup,english,male,NA,NA,In the main trials you will be asked to rephrase something a person said. The utterance will contain a word that is <i>relative</i> and your task is to figure out what it is relative to. <br /> <br /> For example: <br /><br />,1,1571853322470,1,NA,1,NA,NA,"buildings, skyscrapers, houses, constructions (choose one)",NA,comp_class_warmup,NA
702,NA,humming bird,NA,NA,NA,16,warmup/eagle.jpg,hummingbird,This is a,no,2,birds,Patricia,NA,eagle,NA,NA,Please label the pictures below.,NA,NA,31,NA,NA,NA,warmup/colibri.jpg,birds,graduated_college,NA,NA,english,male,NA,birds,NA,1,1571853322470,1,This is an,1,These are both,eagle,NA,NA,warmup1,NA
702,NA,hummingbird,NA,NA,NA,16,warmup/eagle.jpg,hummingbird,This is a,no,2,birds,Patricia,NA,eagle,NA,NA,Please label the pictures below.,NA,NA,31,NA,NA,NA,warmup/colibri.jpg,birds,graduated_college,NA,NA,english,male,NA,birds,NA,1,1571853322470,2,This is an,1,These are both,eagle,NA,NA,warmup1,NA
702,NA,daisy,NA,NA,NA,16,warmup/sunflower.png,dandelion,This is a,no,2,flowers,Patricia,NA,sunflower,NA,NA,Please label the pictures below.,NA,NA,31,NA,NA,NA,warmup/dandelion.jpg,flowers,graduated_college,NA,NA,english,male,NA,flowers,NA,2,1571853322470,1,This is a,1,These are both,sunflower,NA,NA,warmup1,NA
702,NA,dandelion,NA,NA,NA,16,warmup/sunflower.png,dandelion,This is a,no,2,flowers,Patricia,NA,sunflower,NA,NA,Please label the pictures below.,NA,NA,31,NA,NA,NA,warmup/dandelion.jpg,flowers,graduated_college,NA,NA,english,male,NA,flowers,NA,2,1571853322470,2,This is a,1,These are both,sunflower,NA,NA,warmup1,NA
702,NA,chihuahua,NA,NA,NA,16,warmup/doberman.png,chihuahua,This is a,no,2,dogs,Patricia,NA,doberman,NA,NA,Please label the pictures below.,NA,NA,31,NA,NA,NA,warmup/chihuahua.jpg,dogs,graduated_college,NA,NA,english,male,NA,dogs,NA,3,1571853322470,1,This is a,1,These are both,doeberman,NA,NA,warmup1,NA
702,NA,chihuahua,NA,NA,NA,16,warmup/doberman.png,chihuahua,This is a,no,2,dogs,Patricia,NA,doberman,NA,NA,Please label the pictures below.,NA,NA,31,NA,NA,NA,warmup/chihuahua.jpg,dogs,graduated_college,NA,NA,english,male,NA,dogs,NA,3,1571853322470,2,This is a,1,These are both,doberman,NA,NA,warmup1,NA
702,What do you think your friend meant?,NA,It is big relative to other,images/bird-parade-basic.png,images/eagle.png,16,NA,NA,NA,no,2,birds,Patricia,NA,NA,0,NA,"Your friend runs far ahead of you, and you see him in the distance:",predicative,NA,31,birds,NA,2,NA,NA,graduated_college,big,NA,english,male,NA,NA,You and your friend see the following:,1,1571853322470,NA,NA,1,NA,NA,NA,basic,custom_main_text1,Your friend says: <br/><b>That one is big.</b>
702,What do you think your friend meant?,NA,It is small relative to other,images/flower-parade-basic.png,images/dandelion.png,16,NA,NA,NA,no,2,flowers,Patricia,NA,NA,0,NA,"Your friend runs far ahead of you, and you see him in the distance:",predicative,NA,31,flowers,NA,2,NA,NA,graduated_college,small,NA,english,male,NA,NA,You and your friend see the following:,2,1571853322470,NA,NA,1,NA,NA,NA,basic,custom_main_text1,Your friend says: <br/><b>That one is small.</b>
702,What do you think your friend meant?,NA,It is big relative to other,images/dog-parade-doberman.png,images/doberman.png,16,NA,NA,NA,no,2,dogs1,Patricia,NA,NA,1,NA,"Your friend runs far ahead of you, and you see him in the distance:",predicative,NA,31,dogs,NA,2,NA,NA,graduated_college,big,NA,english,male,NA,NA,You and your friend see the following:,3,1571853322470,NA,NA,1,NA,NA,NA,congr,custom_main_text1,Your friend says: <br/><b>That one is big.</b>
702,NA,stingray,NA,NA,NA,16,warmup/goldfish.png,swordfish,This is a,no,2,fish,Patricia,NA,goldfish,NA,NA,Please label the pictures below.,NA,NA,31,NA,NA,NA,warmup/swordfish.jpg,fish,graduated_college,NA,NA,english,male,NA,fish,NA,1,1571853322470,1,This is a,1,These are both,goldfish,NA,NA,warmup2,NA
702,NA,swordfish,NA,NA,NA,16,warmup/goldfish.png,swordfish,This is a,no,2,fish,Patricia,NA,goldfish,NA,NA,Please label the pictures below.,NA,NA,31,NA,NA,NA,warmup/swordfish.jpg,fish,graduated_college,NA,NA,english,male,NA,fish,NA,1,1571853322470,2,This is a,1,These are both,goldfish,NA,NA,warmup2,NA
702,NA,pug,NA,NA,NA,16,warmup/great-dane.jpg,pug,This is a,no,2,dogs,Patricia,NA,great dane,NA,NA,Please label the pictures below.,NA,NA,31,NA,NA,NA,warmup/pug.jpg,dogs,graduated_college,NA,NA,english,male,NA,dogs,NA,2,1571853322470,1,This is a,1,These are both,great dane,NA,NA,warmup2,NA
702,NA,aaaa,NA,NA,NA,16,warmup/bonsai.jpg,redwood or sequoia (choose one),This is a,no,2,trees,Patricia,NA,bonsai,NA,NA,Please label the pictures below.,NA,NA,31,NA,NA,NA,warmup/sequoia.png,trees,graduated_college,NA,NA,english,male,NA,trees,NA,3,1571853322470,1,This is a,1,These are both,aaaa,NA,NA,warmup2,NA
702,NA,redwood,NA,NA,NA,16,warmup/bonsai.jpg,redwood or sequoia (choose one),This is a,no,2,trees,Patricia,NA,bonsai,NA,NA,Please label the pictures below.,NA,NA,31,NA,NA,NA,warmup/sequoia.png,trees,graduated_college,NA,NA,english,male,NA,trees,NA,3,1571853322470,2,This is a,1,These are both,bonsai,NA,NA,warmup2,NA
702,What do you think your friend meant?,NA,It is big relative to other,images/fish-parade-basic.png,images/swordfish.png,16,NA,NA,NA,no,2,fish,Patricia,NA,NA,0,NA,"Your friend runs far ahead of you, and you see him in the distance:",predicative,NA,31,fish,NA,2,NA,NA,graduated_college,big,NA,english,male,NA,NA,You and your friend see the following:,1,1571853322470,NA,NA,1,NA,NA,NA,basic,custom_main_text2,Your friend says: <br/><b>That one is big.</b>
702,What do you think your friend meant?,NA,It is small relative to other,images/tree-parade-bonsai.png,images/bonsai.png,16,NA,NA,NA,no,2,trees,Patricia,NA,NA,1,NA,"Your friend runs far ahead of you, and you see him in the distance:",predicative,NA,31,trees,NA,2,NA,NA,graduated_college,small,NA,english,male,NA,NA,You and your friend see the following:,2,1571853322470,NA,NA,1,NA,NA,NA,congr,custom_main_text2,Your friend says: <br/><b>That one is small.</b>
702,What do you think your friend meant?,NA,It is small relative to other,images/dog-parade-pug.png,images/pug.png,16,NA,NA,NA,no,2,dogs2,Patricia,NA,NA,1,NA,"Your friend runs far ahead of you, and you see him in the distance:",predicative,NA,31,dogs,NA,2,NA,NA,graduated_college,small,NA,english,male,NA,NA,You and your friend see the following:,3,1571853322470,NA,NA,1,NA,NA,NA,congr,custom_main_text2,Your friend says: <br/><b>That one is small.</b>
699,<i>What do you think Speaker A meant? </i>,NA,The Empire State Building is tall relative to other,NA,NA,16,NA,NA,NA,NA,NA,NA,Elizabeth,1,NA,NA,yes,NA,NA,"<b> Speaker A: ""The Empire State Building is tall.""</b>",30,The Empire State Building is tall.,NA,NA,NA,NA,NA,NA,comp_class_warmup,NA,male,NA,NA,In the main trials you will be asked to rephrase something a person said. The utterance will contain a word that is <i>relative</i> and your task is to figure out what it is relative to. <br /> <br /> For example: <br /><br />,1,1571853100713,1,NA,NA,NA,NA,"buildings, skyscrapers, houses, constructions (choose one)",NA,comp_class_warmup,NA
699,<i>What do you think Speaker A meant? </i>,NA,The Empire State Building is tall relative to other,NA,NA,16,NA,NA,NA,NA,NA,NA,Elizabeth,1,NA,NA,yes,NA,NA,"<b> Speaker A: ""The Empire State Building is tall.""</b>",30,The Empire State Building is tall,NA,NA,NA,NA,NA,NA,comp_class_warmup,NA,male,NA,NA,In the main trials you will be asked to rephrase something a person said. The utterance will contain a word that is <i>relative</i> and your task is to figure out what it is relative to. <br /> <br /> For example: <br /><br />,1,1571853100713,2,NA,NA,NA,NA,"buildings, skyscrapers, houses, constructions (choose one)",NA,comp_class_warmup,NA
699,<i>What do you think Speaker A meant? </i>,NA,The Empire State Building is tall relative to other,NA,NA,16,NA,NA,NA,NA,NA,NA,Elizabeth,1,NA,NA,yes,NA,NA,"<b> Speaker A: ""The Empire State Building is tall.""</b>",30,The Empire State Building is tall,NA,NA,NA,NA,NA,NA,comp_class_warmup,NA,male,NA,NA,In the main trials you will be asked to rephrase something a person said. The utterance will contain a word that is <i>relative</i> and your task is to figure out what it is relative to. <br /> <br /> For example: <br /><br />,1,1571853100713,3,NA,NA,NA,NA,"buildings, skyscrapers, houses, constructions (choose one)",NA,comp_class_warmup,NA
699,<i>What do you think Speaker A meant? </i>,NA,The Empire State Building is tall relative to other,NA,NA,16,NA,NA,NA,NA,NA,NA,Elizabeth,1,NA,NA,yes,NA,NA,"<b> Speaker A: ""The Empire State Building is tall.""</b>",30,The Empire State Building is tall,NA,NA,NA,NA,NA,NA,comp_class_warmup,NA,male,NA,NA,In the main trials you will be asked to rephrase something a person said. The utterance will contain a word that is <i>relative</i> and your task is to figure out what it is relative to. <br /> <br /> For example: <br /><br />,1,1571853100713,4,NA,NA,NA,NA,"buildings, skyscrapers, houses, constructions (choose one)",NA,comp_class_warmup,NA
699,<i>What do you think Speaker A meant? </i>,NA,The Empire State Building is tall relative to other,NA,NA,16,NA,NA,NA,NA,NA,NA,Elizabeth,1,NA,NA,yes,NA,NA,"<b> Speaker A: ""The Empire State Building is tall.""</b>",30,The Empire State Building is tall,NA,NA,NA,NA,NA,NA,comp_class_warmup,NA,male,NA,NA,In the main trials you will be asked to rephrase something a person said. The utterance will contain a word that is <i>relative</i> and your task is to figure out what it is relative to. <br /> <br /> For example: <br /><br />,1,1571853100713,5,NA,NA,NA,NA,"buildings, skyscrapers, houses, constructions (choose one)",NA,comp_class_warmup,NA
699,<i>What do you think Speaker A meant? </i>,NA,The Empire State Building is tall relative to other,NA,NA,16,NA,NA,NA,NA,NA,NA,Elizabeth,1,NA,NA,yes,NA,NA,"<b> Speaker A: ""The Empire State Building is tall.""</b>",30,The Empire State Building is tall,NA,NA,NA,NA,NA,NA,comp_class_warmup,NA,male,NA,NA,In the main trials you will be asked to rephrase something a person said. The utterance will contain a word that is <i>relative</i> and your task is to figure out what it is relative to. <br /> <br /> For example: <br /><br />,1,1571853100713,6,NA,NA,NA,NA,"buildings, skyscrapers, houses, constructions (choose one)",NA,comp_class_warmup,NA
699,<i>What do you think Speaker A meant? </i>,NA,The Empire State Building is tall relative to other,NA,NA,16,NA,NA,NA,NA,NA,NA,Elizabeth,1,NA,NA,yes,NA,NA,"<b> Speaker A: ""The Empire State Building is tall.""</b>",30,The Empire State Building is tall,NA,NA,NA,NA,NA,NA,comp_class_warmup,NA,male,NA,NA,In the main trials you will be asked to rephrase something a person said. The utterance will contain a word that is <i>relative</i> and your task is to figure out what it is relative to. <br /> <br /> For example: <br /><br />,1,1571853100713,7,NA,NA,NA,NA,"buildings, skyscrapers, houses, constructions (choose one)",NA,comp_class_warmup,NA
699,<i>What do you think Speaker A meant? </i>,NA,The Empire State Building is tall relative to other,NA,NA,16,NA,NA,NA,NA,NA,NA,Elizabeth,1,NA,NA,yes,NA,NA,"<b> Speaker A: ""The Empire State Building is tall.""</b>",30,The Empire State Building is tall,NA,NA,NA,NA,NA,NA,comp_class_warmup,NA,male,NA,NA,In the main trials you will be asked to rephrase something a person said. The utterance will contain a word that is <i>relative</i> and your task is to figure out what it is relative to. <br /> <br /> For example: <br /><br />,1,1571853100713,8,NA,NA,NA,NA,"buildings, skyscrapers, houses, constructions (choose one)",NA,comp_class_warmup,NA
699,<i>What do you think Speaker A meant? </i>,NA,The Empire State Building is tall relative to other,NA,NA,16,NA,NA,NA,NA,NA,NA,Elizabeth,1,NA,NA,yes,NA,NA,"<b> Speaker A: ""The Empire State Building is tall.""</b>",30,The Empire State Building is tall,NA,NA,NA,NA,NA,NA,comp_class_warmup,NA,male,NA,NA,In the main trials you will be asked to rephrase something a person said. The utterance will contain a word that is <i>relative</i> and your task is to figure out what it is relative to. <br /> <br /> For example: <br /><br />,1,1571853100713,9,NA,NA,NA,NA,"buildings, skyscrapers, houses, constructions (choose one)",NA,comp_class_warmup,NA
699,<i>What do you think Speaker A meant? </i>,NA,The Empire State Building is tall relative to other,NA,NA,16,NA,NA,NA,NA,NA,NA,Elizabeth,1,NA,NA,yes,NA,NA,"<b> Speaker A: ""The Empire State Building is tall.""</b>",30,The Empire State Building is tall,NA,NA,NA,NA,NA,NA,comp_class_warmup,NA,male,NA,NA,In the main trials you will be asked to rephrase something a person said. The utterance will contain a word that is <i>relative</i> and your task is to figure out what it is relative to. <br /> <br /> For example: <br /><br />,1,1571853100713,10,NA,NA,NA,NA,"buildings, skyscrapers, houses, constructions (choose one)",NA,comp_class_warmup,NA
699,<i>What do you think Speaker A meant? </i>,NA,The Empire State Building is tall relative to other,NA,NA,16,NA,NA,NA,NA,NA,NA,Elizabeth,1,NA,NA,yes,NA,NA,"<b> Speaker A: ""The Empire State Building is tall.""</b>",30,The Empire State Building is tall,NA,NA,NA,NA,NA,NA,comp_class_warmup,NA,male,NA,NA,In the main trials you will be asked to rephrase something a person said. The utterance will contain a word that is <i>relative</i> and your task is to figure out what it is relative to. <br /> <br /> For example: <br /><br />,1,1571853100713,11,NA,NA,NA,NA,"buildings, skyscrapers, houses, constructions (choose one)",NA,comp_class_warmup,NA
699,<i>What do you think Speaker A meant? </i>,NA,The Empire State Building is tall relative to other,NA,NA,16,NA,NA,NA,NA,NA,NA,Elizabeth,1,NA,NA,yes,NA,NA,"<b> Speaker A: ""The Empire State Building is tall.""</b>",30,The Empire State Building is tall,NA,NA,NA,NA,NA,NA,comp_class_warmup,NA,male,NA,NA,In the main trials you will be asked to rephrase something a person said. The utterance will contain a word that is <i>relative</i> and your task is to figure out what it is relative to. <br /> <br /> For example: <br /><br />,1,1571853100713,12,NA,NA,NA,NA,"buildings, skyscrapers, houses, constructions (choose one)",NA,comp_class_warmup,NA
699,<i>What do you think Speaker A meant? </i>,NA,The Empire State Building is tall relative to other,NA,NA,16,NA,NA,NA,NA,NA,NA,Elizabeth,1,NA,NA,yes,NA,NA,"<b> Speaker A: ""The Empire State Building is tall.""</b>",30,The Empire State Building is tall,NA,NA,NA,NA,NA,NA,comp_class_warmup,NA,male,NA,NA,In the main trials you will be asked to rephrase something a person said. The utterance will contain a word that is <i>relative</i> and your task is to figure out what it is relative to. <br /> <br /> For example: <br /><br />,1,1571853100713,13,NA,NA,NA,NA,"buildings, skyscrapers, houses, constructions (choose one)",NA,comp_class_warmup,NA
699,<i>What do you think Speaker A meant? </i>,NA,The Empire State Building is tall relative to other,NA,NA,16,NA,NA,NA,NA,NA,NA,Elizabeth,1,NA,NA,yes,NA,NA,"<b> Speaker A: ""The Empire State Building is tall.""</b>",30,The Empire State Building is tall,NA,NA,NA,NA,NA,NA,comp_class_warmup,NA,male,NA,NA,In the main trials you will be asked to rephrase something a person said. The utterance will contain a word that is <i>relative</i> and your task is to figure out what it is relative to. <br /> <br /> For example: <br /><br />,1,1571853100713,14,NA,NA,NA,NA,"buildings, skyscrapers, houses, constructions (choose one)",NA,comp_class_warmup,NA
699,<i>What do you think Speaker A meant? </i>,NA,The Empire State Building is tall relative to other,NA,NA,16,NA,NA,NA,NA,NA,NA,Elizabeth,1,NA,NA,yes,NA,NA,"<b> Speaker A: ""The Empire State Building is tall.""</b>",30,The Empire State Building is tall,NA,NA,NA,NA,NA,NA,comp_class_warmup,NA,male,NA,NA,In the main trials you will be asked to rephrase something a person said. The utterance will contain a word that is <i>relative</i> and your task is to figure out what it is relative to. <br /> <br /> For example: <br /><br />,1,1571853100713,15,NA,NA,NA,NA,"buildings, skyscrapers, houses, constructions (choose one)",NA,comp_class_warmup,NA
699,<i>What do you think Speaker A meant? </i>,NA,The Empire State Building is tall relative to other,NA,NA,16,NA,NA,NA,NA,NA,NA,Elizabeth,1,NA,NA,yes,NA,NA,"<b> Speaker A: ""The Empire State Building is tall.""</b>",30,The Empire State Building is tall,NA,NA,NA,NA,NA,NA,comp_class_warmup,NA,male,NA,NA,In the main trials you will be asked to rephrase something a person said. The utterance will contain a word that is <i>relative</i> and your task is to figure out what it is relative to. <br /> <br /> For example: <br /><br />,1,1571853100713,16,NA,NA,NA,NA,"buildings, skyscrapers, houses, constructions (choose one)",NA,comp_class_warmup,NA
699,<i>What do you think Speaker A meant? </i>,NA,The Empire State Building is tall relative to other,NA,NA,16,NA,NA,NA,NA,NA,NA,Elizabeth,1,NA,NA,yes,NA,NA,"<b> Speaker A: ""The Empire State Building is tall.""</b>",30,The Empire State Building is tall,NA,NA,NA,NA,NA,NA,comp_class_warmup,NA,male,NA,NA,In the main trials you will be asked to rephrase something a person said. The utterance will contain a word that is <i>relative</i> and your task is to figure out what it is relative to. <br /> <br /> For example: <br /><br />,1,1571853100713,17,NA,NA,NA,NA,"buildings, skyscrapers, houses, constructions (choose one)",NA,comp_class_warmup,NA
699,<i>What do you think Speaker A meant? </i>,NA,The Empire State Building is tall relative to other,NA,NA,16,NA,NA,NA,NA,NA,NA,Elizabeth,1,NA,NA,yes,NA,NA,"<b> Speaker A: ""The Empire State Building is tall.""</b>",30,The Empire State Building is tall,NA,NA,NA,NA,NA,NA,comp_class_warmup,NA,male,NA,NA,In the main trials you will be asked to rephrase something a person said. The utterance will contain a word that is <i>relative</i> and your task is to figure out what it is relative to. <br /> <br /> For example: <br /><br />,1,1571853100713,18,NA,NA,NA,NA,"buildings, skyscrapers, houses, constructions (choose one)",NA,comp_class_warmup,NA
699,<i>What do you think Speaker A meant? </i>,NA,The Empire State Building is tall relative to other,NA,NA,16,NA,NA,NA,NA,NA,NA,Elizabeth,1,NA,NA,yes,NA,NA,"<b> Speaker A: ""The Empire State Building is tall.""</b>",30,The Empire State Building is tall,NA,NA,NA,NA,NA,NA,comp_class_warmup,NA,male,NA,NA,In the main trials you will be asked to rephrase something a person said. The utterance will contain a word that is <i>relative</i> and your task is to figure out what it is relative to. <br /> <br /> For example: <br /><br />,1,1571853100713,19,NA,NA,NA,NA,"buildings, skyscrapers, houses, constructions (choose one)",NA,comp_class_warmup,NA
699,<i>What do you think Speaker A meant? </i>,NA,The Empire State Building is tall relative to other,NA,NA,16,NA,NA,NA,NA,NA,NA,Elizabeth,1,NA,NA,yes,NA,NA,"<b> Speaker A: ""The Empire State Building is tall.""</b>",30,The Empire State Building is tall,NA,NA,NA,NA,NA,NA,comp_class_warmup,NA,male,NA,NA,In the main trials you will be asked to rephrase something a person said. The utterance will contain a word that is <i>relative</i> and your task is to figure out what it is relative to. <br /> <br /> For example: <br /><br />,1,1571853100713,20,NA,NA,NA,NA,"buildings, skyscrapers, houses, constructions (choose one)",NA,comp_class_warmup,NA
699,<i>What do you think Speaker A meant? </i>,NA,The Empire State Building is tall relative to other,NA,NA,16,NA,NA,NA,NA,NA,NA,Elizabeth,1,NA,NA,yes,NA,NA,"<b> Speaker A: ""The Empire State Building is tall.""</b>",30,The Empire State Building is tall,NA,NA,NA,NA,NA,NA,comp_class_warmup,NA,male,NA,NA,In the main trials you will be asked to rephrase something a person said. The utterance will contain a word that is <i>relative</i> and your task is to figure out what it is relative to. <br /> <br /> For example: <br /><br />,1,1571853100713,21,NA,NA,NA,NA,"buildings, skyscrapers, houses, constructions (choose one)",NA,comp_class_warmup,NA
699,<i>What do you think Speaker A meant? </i>,NA,The Empire State Building is tall relative to other,NA,NA,16,NA,NA,NA,NA,NA,NA,Elizabeth,1,NA,NA,yes,NA,NA,"<b> Speaker A: ""The Empire State Building is tall.""</b>",30,The Empire State Building is tall,NA,NA,NA,NA,NA,NA,comp_class_warmup,NA,male,NA,NA,In the main trials you will be asked to rephrase something a person said. The utterance will contain a word that is <i>relative</i> and your task is to figure out what it is relative to. <br /> <br /> For example: <br /><br />,1,1571853100713,22,NA,NA,NA,NA,"buildings, skyscrapers, houses, constructions (choose one)",NA,comp_class_warmup,NA
699,<i>What do you think Speaker A meant? </i>,NA,The Empire State Building is tall relative to other,NA,NA,16,NA,NA,NA,NA,NA,NA,Elizabeth,1,NA,NA,yes,NA,NA,"<b> Speaker A: ""The Empire State Building is tall.""</b>",30,The Empire State Building is tall,NA,NA,NA,NA,NA,NA,comp_class_warmup,NA,male,NA,NA,In the main trials you will be asked to rephrase something a person said. The utterance will contain a word that is <i>relative</i> and your task is to figure out what it is relative to. <br /> <br /> For example: <br /><br />,1,1571853100713,23,NA,NA,NA,NA,"buildings, skyscrapers, houses, constructions (choose one)",NA,comp_class_warmup,NA
699,<i>What do you think Speaker A meant? </i>,NA,The Empire State Building is tall relative to other,NA,NA,16,NA,NA,NA,NA,NA,NA,Elizabeth,1,NA,NA,yes,NA,NA,"<b> Speaker A: ""The Empire State Building is tall.""</b>",30,The Empire State Building is tall,NA,NA,NA,NA,NA,NA,comp_class_warmup,NA,male,NA,NA,In the main trials you will be asked to rephrase something a person said. The utterance will contain a word that is <i>relative</i> and your task is to figure out what it is relative to. <br /> <br /> For example: <br /><br />,1,1571853100713,24,NA,NA,NA,NA,"buildings, skyscrapers, houses, constructions (choose one)",NA,comp_class_warmup,NA
699,<i>What do you think Speaker A meant? </i>,NA,The Empire State Building is tall relative to other,NA,NA,16,NA,NA,NA,NA,NA,NA,Elizabeth,1,NA,NA,yes,NA,NA,"<b> Speaker A: ""The Empire State Building is tall.""</b>",30,The Empire State Building is tall,NA,NA,NA,NA,NA,NA,comp_class_warmup,NA,male,NA,NA,In the main trials you will be asked to rephrase something a person said. The utterance will contain a word that is <i>relative</i> and your task is to figure out what it is relative to. <br /> <br /> For example: <br /><br />,1,1571853100713,25,NA,NA,NA,NA,"buildings, skyscrapers, houses, constructions (choose one)",NA,comp_class_warmup,NA
699,<i>What do you think Speaker A meant? </i>,NA,The Empire State Building is tall relative to other,NA,NA,16,NA,NA,NA,NA,NA,NA,Elizabeth,1,NA,NA,yes,NA,NA,"<b> Speaker A: ""The Empire State Building is tall.""</b>",30,The Empire State Building is tall,NA,NA,NA,NA,NA,NA,comp_class_warmup,NA,male,NA,NA,In the main trials you will be asked to rephrase something a person said. The utterance will contain a word that is <i>relative</i> and your task is to figure out what it is relative to. <br /> <br /> For example: <br /><br />,1,1571853100713,26,NA,NA,NA,NA,"buildings, skyscrapers, houses, constructions (choose one)",NA,comp_class_warmup,NA
699,<i>What do you think Speaker A meant? </i>,NA,The Empire State Building is tall relative to other,NA,NA,16,NA,NA,NA,NA,NA,NA,Elizabeth,1,NA,NA,yes,NA,NA,"<b> Speaker A: ""The Empire State Building is tall.""</b>",30,The Empire State Building is tall,NA,NA,NA,NA,NA,NA,comp_class_warmup,NA,male,NA,NA,In the main trials you will be asked to rephrase something a person said. The utterance will contain a word that is <i>relative</i> and your task is to figure out what it is relative to. <br /> <br /> For example: <br /><br />,1,1571853100713,27,NA,NA,NA,NA,"buildings, skyscrapers, houses, constructions (choose one)",NA,comp_class_warmup,NA
699,<i>What do you think Speaker A meant? </i>,NA,The Empire State Building is tall relative to other,NA,NA,16,NA,NA,NA,NA,NA,NA,Elizabeth,1,NA,NA,yes,NA,NA,"<b> Speaker A: ""The Empire State Building is tall.""</b>",30,The Empire State Building is tall,NA,NA,NA,NA,NA,NA,comp_class_warmup,NA,male,NA,NA,In the main trials you will be asked to rephrase something a person said. The utterance will contain a word that is <i>relative</i> and your task is to figure out what it is relative to. <br /> <br /> For example: <br /><br />,1,1571853100713,28,NA,NA,NA,NA,"buildings, skyscrapers, houses, constructions (choose one)",NA,comp_class_warmup,NA
699,<i>What do you think Speaker A meant? </i>,NA,The Empire State Building is tall relative to other,NA,NA,16,NA,NA,NA,NA,NA,NA,Elizabeth,1,NA,NA,yes,NA,NA,"<b> Speaker A: ""The Empire State Building is tall.""</b>",30,The Empire State Building is tall,NA,NA,NA,NA,NA,NA,comp_class_warmup,NA,male,NA,NA,In the main trials you will be asked to rephrase something a person said. The utterance will contain a word that is <i>relative</i> and your task is to figure out what it is relative to. <br /> <br /> For example: <br /><br />,1,1571853100713,29,NA,NA,NA,NA,"buildings, skyscrapers, houses, constructions (choose one)",NA,comp_class_warmup,NA
699,<i>What do you think Speaker A meant? </i>,NA,The Empire State Building is tall relative to other,NA,NA,16,NA,NA,NA,NA,NA,NA,Elizabeth,1,NA,NA,yes,NA,NA,"<b> Speaker A: ""The Empire State Building is tall.""</b>",30,The Empire State Building is tall,NA,NA,NA,NA,NA,NA,comp_class_warmup,NA,male,NA,NA,In the main trials you will be asked to rephrase something a person said. The utterance will contain a word that is <i>relative</i> and your task is to figure out what it is relative to. <br /> <br /> For example: <br /><br />,1,1571853100713,30,NA,NA,NA,NA,"buildings, skyscrapers, houses, constructions (choose one)",NA,comp_class_warmup,NA
699,<i>What do you think Speaker A meant? </i>,NA,The Empire State Building is tall relative to other,NA,NA,16,NA,NA,NA,NA,NA,NA,Elizabeth,1,NA,NA,yes,NA,NA,"<b> Speaker A: ""The Empire State Building is tall.""</b>",30,The Empire State Building is tall,NA,NA,NA,NA,NA,NA,comp_class_warmup,NA,male,NA,NA,In the main trials you will be asked to rephrase something a person said. The utterance will contain a word that is <i>relative</i> and your task is to figure out what it is relative to. <br /> <br /> For example: <br /><br />,1,1571853100713,31,NA,NA,NA,NA,"buildings, skyscrapers, houses, constructions (choose one)",NA,comp_class_warmup,NA
699,<i>What do you think Speaker A meant? </i>,NA,The Empire State Building is tall relative to other,NA,NA,16,NA,NA,NA,NA,NA,NA,Elizabeth,1,NA,NA,yes,NA,NA,"<b> Speaker A: ""The Empire State Building is tall.""</b>",30,The Empire State Building is tall,NA,NA,NA,NA,NA,NA,comp_class_warmup,NA,male,NA,NA,In the main trials you will be asked to rephrase something a person said. The utterance will contain a word that is <i>relative</i> and your task is to figure out what it is relative to. <br /> <br /> For example: <br /><br />,1,1571853100713,32,NA,NA,NA,NA,"buildings, skyscrapers, houses, constructions (choose one)",NA,comp_class_warmup,NA
699,<i>What do you think Speaker A meant? </i>,NA,The Empire State Building is tall relative to other,NA,NA,16,NA,NA,NA,NA,NA,NA,Elizabeth,1,NA,NA,yes,NA,NA,"<b> Speaker A: ""The Empire State Building is tall.""</b>",30,The Empire State Building is tall,NA,NA,NA,NA,NA,NA,comp_class_warmup,NA,male,NA,NA,In the main trials you will be asked to rephrase something a person said. The utterance will contain a word that is <i>relative</i> and your task is to figure out what it is relative to. <br /> <br /> For example: <br /><br />,1,1571853100713,33,NA,NA,NA,NA,"buildings, skyscrapers, houses, constructions (choose one)",NA,comp_class_warmup,NA
699,<i>What do you think Speaker A meant? </i>,NA,The Empire State Building is tall relative to other,NA,NA,16,NA,NA,NA,NA,NA,NA,Elizabeth,1,NA,NA,yes,NA,NA,"<b> Speaker A: ""The Empire State Building is tall.""</b>",30,The Empire State Building is tall,NA,NA,NA,NA,NA,NA,comp_class_warmup,NA,male,NA,NA,In the main trials you will be asked to rephrase something a person said. The utterance will contain a word that is <i>relative</i> and your task is to figure out what it is relative to. <br /> <br /> For example: <br /><br />,1,1571853100713,34,NA,NA,NA,NA,"buildings, skyscrapers, houses, constructions (choose one)",NA,comp_class_warmup,NA
699,<i>What do you think Speaker A meant? </i>,NA,The Empire State Building is tall relative to other,NA,NA,16,NA,NA,NA,NA,NA,NA,Elizabeth,1,NA,NA,yes,NA,NA,"<b> Speaker A: ""The Empire State Building is tall.""</b>",30,The Empire State Building is tall,NA,NA,NA,NA,NA,NA,comp_class_warmup,NA,male,NA,NA,In the main trials you will be asked to rephrase something a person said. The utterance will contain a word that is <i>relative</i> and your task is to figure out what it is relative to. <br /> <br /> For example: <br /><br />,1,1571853100713,35,NA,NA,NA,NA,"buildings, skyscrapers, houses, constructions (choose one)",NA,comp_class_warmup,NA
699,<i>What do you think Speaker A meant? </i>,NA,The Empire State Building is tall relative to other,NA,NA,16,NA,NA,NA,NA,NA,NA,Elizabeth,1,NA,NA,yes,NA,NA,"<b> Speaker A: ""The Empire State Building is tall.""</b>",30,The Empire State Building is tall,NA,NA,NA,NA,NA,NA,comp_class_warmup,NA,male,NA,NA,In the main trials you will be asked to rephrase something a person said. The utterance will contain a word that is <i>relative</i> and your task is to figure out what it is relative to. <br /> <br /> For example: <br /><br />,1,1571853100713,36,NA,NA,NA,NA,"buildings, skyscrapers, houses, constructions (choose one)",NA,comp_class_warmup,NA
699,<i>What do you think Speaker A meant? </i>,NA,The Empire State Building is tall relative to other,NA,NA,16,NA,NA,NA,NA,NA,NA,Elizabeth,1,NA,NA,yes,NA,NA,"<b> Speaker A: ""The Empire State Building is tall.""</b>",30,The Empire State Building is tall,NA,NA,NA,NA,NA,NA,comp_class_warmup,NA,male,NA,NA,In the main trials you will be asked to rephrase something a person said. The utterance will contain a word that is <i>relative</i> and your task is to figure out what it is relative to. <br /> <br /> For example: <br /><br />,1,1571853100713,37,NA,NA,NA,NA,"buildings, skyscrapers, houses, constructions (choose one)",NA,comp_class_warmup,NA
699,<i>What do you think Speaker A meant? </i>,NA,The Empire State Building is tall relative to other,NA,NA,16,NA,NA,NA,NA,NA,NA,Elizabeth,1,NA,NA,yes,NA,NA,"<b> Speaker A: ""The Empire State Building is tall.""</b>",30,The Empire State Building is tall.,NA,NA,NA,NA,NA,NA,comp_class_warmup,NA,male,NA,NA,In the main trials you will be asked to rephrase something a person said. The utterance will contain a word that is <i>relative</i> and your task is to figure out what it is relative to. <br /> <br /> For example: <br /><br />,1,1571853100713,38,NA,NA,NA,NA,"buildings, skyscrapers, houses, constructions (choose one)",NA,comp_class_warmup,NA
699,<i>What do you think Speaker A meant? </i>,NA,The Empire State Building is tall relative to other,NA,NA,16,NA,NA,NA,NA,NA,NA,Elizabeth,1,NA,NA,yes,NA,NA,"<b> Speaker A: ""The Empire State Building is tall.""</b>",30,The Empire State Building is tall.,NA,NA,NA,NA,NA,NA,comp_class_warmup,NA,male,NA,NA,In the main trials you will be asked to rephrase something a person said. The utterance will contain a word that is <i>relative</i> and your task is to figure out what it is relative to. <br /> <br /> For example: <br /><br />,1,1571853100713,39,NA,NA,NA,NA,"buildings, skyscrapers, houses, constructions (choose one)",NA,comp_class_warmup,NA
699,<i>What do you think Speaker A meant? </i>,NA,The Empire State Building is tall relative to other,NA,NA,16,NA,NA,NA,NA,NA,NA,Elizabeth,1,NA,NA,yes,NA,NA,"<b> Speaker A: ""The Empire State Building is tall.""</b>",30,Building,NA,NA,NA,NA,NA,NA,comp_class_warmup,NA,male,NA,NA,In the main trials you will be asked to rephrase something a person said. The utterance will contain a word that is <i>relative</i> and your task is to figure out what it is relative to. <br /> <br /> For example: <br /><br />,1,1571853100713,40,NA,NA,NA,NA,"buildings, skyscrapers, houses, constructions (choose one)",NA,comp_class_warmup,NA
699,NA,bird,NA,NA,NA,16,warmup/eagle.jpg,hummingbird,This is a,NA,NA,birds,Elizabeth,NA,eagle,NA,yes,Please label the pictures below.,NA,NA,30,NA,NA,NA,warmup/colibri.jpg,bird,NA,NA,NA,NA,male,NA,birds,NA,1,1571853100713,1,This is an,NA,These are both,bird,NA,NA,warmup1,NA
699,NA,hummingbird,NA,NA,NA,16,warmup/eagle.jpg,hummingbird,This is a,NA,NA,birds,Elizabeth,NA,eagle,NA,yes,Please label the pictures below.,NA,NA,30,NA,NA,NA,warmup/colibri.jpg,hummingbird,NA,NA,NA,NA,male,NA,birds,NA,1,1571853100713,2,This is an,NA,These are both,hummingbird,NA,NA,warmup1,NA
699,NA,hummingbird,NA,NA,NA,16,warmup/eagle.jpg,hummingbird,This is a,NA,NA,birds,Elizabeth,NA,eagle,NA,yes,Please label the pictures below.,NA,NA,30,NA,NA,NA,warmup/colibri.jpg,hummingbird,NA,NA,NA,NA,male,NA,birds,NA,1,1571853100713,3,This is an,NA,These are both,hummingbird,NA,NA,warmup1,NA
699,NA,hummingbird,NA,NA,NA,16,warmup/eagle.jpg,hummingbird,This is a,NA,NA,birds,Elizabeth,NA,eagle,NA,yes,Please label the pictures below.,NA,NA,30,NA,NA,NA,warmup/colibri.jpg,hummingbird,NA,NA,NA,NA,male,NA,birds,NA,1,1571853100713,4,This is an,NA,These are both,hummingbird,NA,NA,warmup1,NA
699,NA,hummingbird,NA,NA,NA,16,warmup/eagle.jpg,hummingbird,This is a,NA,NA,birds,Elizabeth,NA,eagle,NA,yes,Please label the pictures below.,NA,NA,30,NA,NA,NA,warmup/colibri.jpg,hummingbird,NA,NA,NA,NA,male,NA,birds,NA,1,1571853100713,5,This is an,NA,These are both,hummingbird,NA,NA,warmup1,NA
699,NA,hummingbird,NA,NA,NA,16,warmup/eagle.jpg,hummingbird,This is a,NA,NA,birds,Elizabeth,NA,eagle,NA,yes,Please label the pictures below.,NA,NA,30,NA,NA,NA,warmup/colibri.jpg,hummingbird,NA,NA,NA,NA,male,NA,birds,NA,1,1571853100713,6,This is an,NA,These are both,hummingbird,NA,NA,warmup1,NA
699,NA,hummingbird,NA,NA,NA,16,warmup/eagle.jpg,hummingbird,This is a,NA,NA,birds,Elizabeth,NA,eagle,NA,yes,Please label the pictures below.,NA,NA,30,NA,NA,NA,warmup/colibri.jpg,hummingbird,NA,NA,NA,NA,male,NA,birds,NA,1,1571853100713,7,This is an,NA,These are both,hummingbird,NA,NA,warmup1,NA
699,NA,hummingbird,NA,NA,NA,16,warmup/eagle.jpg,hummingbird,This is a,NA,NA,birds,Elizabeth,NA,eagle,NA,yes,Please label the pictures below.,NA,NA,30,NA,NA,NA,warmup/colibri.jpg,hummingbird,NA,NA,NA,NA,male,NA,birds,NA,1,1571853100713,8,This is an,NA,These are both,hummingbird,NA,NA,warmup1,NA
699,NA,hummingbird,NA,NA,NA,16,warmup/eagle.jpg,hummingbird,This is a,NA,NA,birds,Elizabeth,NA,eagle,NA,yes,Please label the pictures below.,NA,NA,30,NA,NA,NA,warmup/colibri.jpg,hummingbird,NA,NA,NA,NA,male,NA,birds,NA,1,1571853100713,9,This is an,NA,These are both,hummingbird,NA,NA,warmup1,NA
699,NA,hummingbird,NA,NA,NA,16,warmup/eagle.jpg,hummingbird,This is a,NA,NA,birds,Elizabeth,NA,eagle,NA,yes,Please label the pictures below.,NA,NA,30,NA,NA,NA,warmup/colibri.jpg,hummingbird,NA,NA,NA,NA,male,NA,birds,NA,1,1571853100713,10,This is an,NA,These are both,hummingbird,NA,NA,warmup1,NA
699,NA,hummingbird,NA,NA,NA,16,warmup/eagle.jpg,hummingbird,This is a,NA,NA,birds,Elizabeth,NA,eagle,NA,yes,Please label the pictures below.,NA,NA,30,NA,NA,NA,warmup/colibri.jpg,birds,NA,NA,NA,NA,male,NA,birds,NA,1,1571853100713,11,This is an,NA,These are both,eagle,NA,NA,warmup1,NA
699,NA,edfgdfg,NA,NA,NA,16,warmup/sunflower.png,dandelion,This is a,NA,NA,flowers,Elizabeth,NA,sunflower,NA,yes,Please label the pictures below.,NA,NA,30,NA,NA,NA,warmup/dandelion.jpg,cxcbcxb,NA,NA,NA,NA,male,NA,flowers,NA,2,1571853100713,1,This is a,NA,These are both,dgdgd,NA,NA,warmup1,NA
699,NA,dandelion,NA,NA,NA,16,warmup/sunflower.png,dandelion,This is a,NA,NA,flowers,Elizabeth,NA,sunflower,NA,yes,Please label the pictures below.,NA,NA,30,NA,NA,NA,warmup/dandelion.jpg,flowers,NA,NA,NA,NA,male,NA,flowers,NA,2,1571853100713,2,This is a,NA,These are both,sunflower,NA,NA,warmup1,NA
699,NA,tres,NA,NA,NA,16,warmup/bonsai.jpg,redwood or sequoia (choose one),This is a,NA,NA,trees,Elizabeth,NA,bonsai,NA,yes,Please label the pictures below.,NA,NA,30,NA,NA,NA,warmup/sequoia.png,tres,NA,NA,NA,NA,male,NA,trees,NA,3,1571853100713,1,This is a,NA,These are both,tres,NA,NA,warmup1,NA
699,NA,redwood,NA,NA,NA,16,warmup/bonsai.jpg,redwood or sequoia (choose one),This is a,NA,NA,trees,Elizabeth,NA,bonsai,NA,yes,Please label the pictures below.,NA,NA,30,NA,NA,NA,warmup/sequoia.png,trees,NA,NA,NA,NA,male,NA,trees,NA,3,1571853100713,2,This is a,NA,These are both,bonsai,NA,NA,warmup1,NA
699,What do you think your friend meant?,NA,It is small relative to other,images/bird-parade-basic.png,images/hummingbird.png,16,NA,NA,NA,NA,NA,birds,Elizabeth,NA,NA,0,yes,"Your friend runs far ahead of you, and you see him in the distance:",predicative,NA,30,yes,NA,2,NA,NA,NA,small,NA,NA,male,NA,NA,You and your friend see the following:,1,1571853100713,NA,NA,NA,NA,NA,NA,basic,custom_main_text1,Your friend says: <br/><b>That one is small.</b>
699,What do you think your friend meant?,NA,It is big relative to other,images/flower-parade-basic.png,images/sunflower.png,16,NA,NA,NA,NA,NA,flowers,Elizabeth,NA,NA,0,yes,"Your friend runs far ahead of you, and you see him in the distance:",predicative,NA,30,yes,NA,2,NA,NA,NA,big,NA,NA,male,NA,NA,You and your friend see the following:,2,1571853100713,NA,NA,NA,NA,NA,NA,basic,custom_main_text1,Your friend says: <br/><b>That one is big.</b>
699,What do you think your friend meant?,NA,It is small relative to other,images/tree-parade-bonsai.png,images/bonsai.png,16,NA,NA,NA,NA,NA,trees,Elizabeth,NA,NA,1,yes,"Your friend runs far ahead of you, and you see him in the distance:",predicative,NA,30,yes,NA,2,NA,NA,NA,small,NA,NA,male,NA,NA,You and your friend see the following:,3,1571853100713,NA,NA,NA,NA,NA,NA,congr,custom_main_text1,Your friend says: <br/><b>That one is small.</b>
699,NA,fghfds,NA,NA,NA,16,warmup/great-dane.jpg,pug,This is a,NA,NA,dogs,Elizabeth,NA,great dane,NA,yes,Please label the pictures below.,NA,NA,30,NA,NA,NA,warmup/pug.jpg,sdgdsg,NA,NA,NA,NA,male,NA,dogs,NA,1,1571853100713,1,This is a,NA,These are both,g,NA,NA,warmup2,NA
699,NA,pug,NA,NA,NA,16,warmup/great-dane.jpg,pug,This is a,NA,NA,dogs,Elizabeth,NA,great dane,NA,yes,Please label the pictures below.,NA,NA,30,NA,NA,NA,warmup/pug.jpg,dogs,NA,NA,NA,NA,male,NA,dogs,NA,1,1571853100713,2,This is a,NA,These are both,great dane,NA,NA,warmup2,NA
699,NA,dgdg,NA,NA,NA,16,warmup/doberman.png,chihuahua,This is a,NA,NA,dogs,Elizabeth,NA,doberman,NA,yes,Please label the pictures below.,NA,NA,30,NA,NA,NA,warmup/chihuahua.jpg,sfsf,NA,NA,NA,NA,male,NA,dogs,NA,2,1571853100713,1,This is a,NA,These are both,fdss,NA,NA,warmup2,NA
699,NA,chihuahua,NA,NA,NA,16,warmup/doberman.png,chihuahua,This is a,NA,NA,dogs,Elizabeth,NA,doberman,NA,yes,Please label the pictures below.,NA,NA,30,NA,NA,NA,warmup/chihuahua.jpg,dogs,NA,NA,NA,NA,male,NA,dogs,NA,2,1571853100713,2,This is a,NA,These are both,doberman,NA,NA,warmup2,NA
699,NA,ddsfsss,NA,NA,NA,16,warmup/goldfish.png,swordfish,This is a,NA,NA,fish,Elizabeth,NA,goldfish,NA,yes,Please label the pictures below.,NA,NA,30,NA,NA,NA,warmup/swordfish.jpg,fsfs,NA,NA,NA,NA,male,NA,fish,NA,3,1571853100713,1,This is a,NA,These are both,dfdssf,NA,NA,warmup2,NA
699,NA,swordfish,NA,NA,NA,16,warmup/goldfish.png,swordfish,This is a,NA,NA,fish,Elizabeth,NA,goldfish,NA,yes,Please label the pictures below.,NA,NA,30,NA,NA,NA,warmup/swordfish.jpg,fish,NA,NA,NA,NA,male,NA,fish,NA,3,1571853100713,2,This is a,NA,These are both,dfdssf,NA,NA,warmup2,NA
699,NA,swordfish,NA,NA,NA,16,warmup/goldfish.png,swordfish,This is a,NA,NA,fish,Elizabeth,NA,goldfish,NA,yes,Please label the pictures below.,NA,NA,30,NA,NA,NA,warmup/swordfish.jpg,fish,NA,NA,NA,NA,male,NA,fish,NA,3,1571853100713,3,This is a,NA,These are both,goldfish,NA,NA,warmup2,NA
699,What do you think your friend meant?,NA,It is small relative to other,images/dog-parade-basic.png,images/chihuahua.png,16,NA,NA,NA,NA,NA,dogs1,Elizabeth,NA,NA,0,yes,"Your friend runs far ahead of you, and you see him in the distance:",predicative,NA,30,yes,NA,2,NA,NA,NA,small,NA,NA,male,NA,NA,You and your friend see the following:,1,1571853100713,NA,NA,NA,NA,NA,NA,basic,custom_main_text2,Your friend says: <br/><b>That one is small.</b>
699,What do you think your friend meant?,NA,It is big relative to other,images/fish-parade-swordfish.png,images/swordfish.png,16,NA,NA,NA,NA,NA,fish,Elizabeth,NA,NA,1,yes,"Your friend runs far ahead of you, and you see him in the distance:",predicative,NA,30,yes,NA,2,NA,NA,NA,big,NA,NA,male,NA,NA,You and your friend see the following:,2,1571853100713,NA,NA,NA,NA,NA,NA,congr,custom_main_text2,Your friend says: <br/><b>That one is big.</b>
699,What do you think your friend meant?,NA,It is big relative to other,images/dog-parade-great-dane.png,images/great-dane.png,16,NA,NA,NA,NA,NA,dogs2,Elizabeth,NA,NA,1,yes,"Your friend runs far ahead of you, and you see him in the distance:",predicative,NA,30,yes,NA,2,NA,NA,NA,big,NA,NA,male,NA,NA,You and your friend see the following:,3,1571853100713,NA,NA,NA,NA,NA,NA,congr,custom_main_text2,Your friend says: <br/><b>That one is big.</b>
697,<i>What do you think Speaker A meant? </i>,NA,The Empire State Building is tall relative to other,NA,NA,16,NA,NA,NA,No,2,NA,Patricia,1,NA,NA,yes,NA,NA,"<b> Speaker A: ""The Empire State Building is tall.""</b>",25,buildings,NA,NA,NA,NA,graduated_college,NA,comp_class_warmup,English,female,NA,NA,In the main trials you will be asked to rephrase something a person said. The utterance will contain a word that is <i>relative</i> and your task is to figure out what it is relative to. <br /> <br /> For example: <br /><br />,1,1571853311923,1,NA,1,NA,NA,"buildings, skyscrapers, houses, constructions (choose one)",NA,comp_class_warmup,NA
697,NA,dandelion,NA,NA,NA,16,warmup/sunflower.png,dandelion,This is a,No,2,flowers,Patricia,NA,sunflower,NA,yes,Please label the pictures below.,NA,NA,25,NA,NA,NA,warmup/dandelion.jpg,flowers,graduated_college,NA,NA,English,female,NA,flowers,NA,1,1571853311923,1,This is a,1,These are both,sunflower,NA,NA,warmup1,NA
697,NA,redwood,NA,NA,NA,16,warmup/bonsai.jpg,redwood or sequoia (choose one),This is a,No,2,trees,Patricia,NA,bonsai,NA,yes,Please label the pictures below.,NA,NA,25,NA,NA,NA,warmup/sequoia.png,trees,graduated_college,NA,NA,English,female,NA,trees,NA,2,1571853311923,1,This is a,1,These are both,bonsai,NA,NA,warmup1,NA
697,NA,hummingbird,NA,NA,NA,16,warmup/eagle.jpg,hummingbird,This is a,No,2,birds,Patricia,NA,eagle,NA,yes,Please label the pictures below.,NA,NA,25,NA,NA,NA,warmup/colibri.jpg,birds,graduated_college,NA,NA,English,female,NA,birds,NA,3,1571853311923,1,This is an,1,These are both,eagle,NA,NA,warmup1,NA
697,What do you think your friend meant?,NA,It is big relative to other,images/bird-parade-basic.png,images/eagle.png,16,NA,NA,NA,No,2,birds,Patricia,NA,NA,0,yes,"Your friend runs far ahead of you, and you see him in the distance:",predicative,NA,25,birds,NA,2,NA,NA,graduated_college,big,NA,English,female,NA,NA,You and your friend see the following:,1,1571853311923,NA,NA,1,NA,NA,NA,basic,custom_main_text1,Your friend says: <br/><b>That one is big.</b>
697,What do you think your friend meant?,NA,It is big relative to other,images/tree-parade-redwood.png,images/redwood.png,16,NA,NA,NA,No,2,trees,Patricia,NA,NA,1,yes,"Your friend runs far ahead of you, and you see him in the distance:",predicative,NA,25,redwoods,NA,2,NA,NA,graduated_college,big,NA,English,female,NA,NA,You and your friend see the following:,2,1571853311923,NA,NA,1,NA,NA,NA,congr,custom_main_text1,Your friend says: <br/><b>That one is big.</b>
697,What do you think your friend meant?,NA,It is big relative to other,images/flower-parade-sunflower.png,images/sunflower.png,16,NA,NA,NA,No,2,flowers,Patricia,NA,NA,1,yes,"Your friend runs far ahead of you, and you see him in the distance:",predicative,NA,25,sunflowers,NA,2,NA,NA,graduated_college,big,NA,English,female,NA,NA,You and your friend see the following:,3,1571853311923,NA,NA,1,NA,NA,NA,congr,custom_main_text1,Your friend says: <br/><b>That one is big.</b>
697,NA,chihuahua,NA,NA,NA,16,warmup/doberman.png,chihuahua,This is a,No,2,dogs,Patricia,NA,doberman,NA,yes,Please label the pictures below.,NA,NA,25,NA,NA,NA,warmup/chihuahua.jpg,dogs,graduated_college,NA,NA,English,female,NA,dogs,NA,1,1571853311923,1,This is a,1,These are both,doberman,NA,NA,warmup2,NA
697,NA,pug,NA,NA,NA,16,warmup/great-dane.jpg,pug,This is a,No,2,dogs,Patricia,NA,great dane,NA,yes,Please label the pictures below.,NA,NA,25,NA,NA,NA,warmup/pug.jpg,dogs,graduated_college,NA,NA,English,female,NA,dogs,NA,2,1571853311923,1,This is a,1,These are both,great dane,NA,NA,warmup2,NA
697,NA,swordfish,NA,NA,NA,16,warmup/goldfish.png,swordfish,This is a,No,2,fish,Patricia,NA,goldfish,NA,yes,Please label the pictures below.,NA,NA,25,NA,NA,NA,warmup/swordfish.jpg,fish,graduated_college,NA,NA,English,female,NA,fish,NA,3,1571853311923,1,This is a,1,These are both,goldfish,NA,NA,warmup2,NA
697,What do you think your friend meant?,NA,It is small relative to other,images/dog-parade-basic.png,images/chihuahua.png,16,NA,NA,NA,No,2,dogs1,Patricia,NA,NA,0,yes,"Your friend runs far ahead of you, and you see him in the distance:",predicative,NA,25,dogs,NA,2,NA,NA,graduated_college,small,NA,English,female,NA,NA,You and your friend see the following:,1,1571853311923,NA,NA,1,NA,NA,NA,basic,custom_main_text2,Your friend says: <br/><b>That one is small.</b>
697,What do you think your friend meant?,NA,It is small relative to other,images/fish-parade-basic.png,images/goldfish.png,16,NA,NA,NA,No,2,fish,Patricia,NA,NA,0,yes,"Your friend runs far ahead of you, and you see him in the distance:",predicative,NA,25,fish,NA,2,NA,NA,graduated_college,small,NA,English,female,NA,NA,You and your friend see the following:,2,1571853311923,NA,NA,1,NA,NA,NA,basic,custom_main_text2,Your friend says: <br/><b>That one is small.</b>
697,What do you think your friend meant?,NA,It is small relative to other,images/dog-parade-pug.png,images/pug.png,16,NA,NA,NA,No,2,dogs2,Patricia,NA,NA,1,yes,"Your friend runs far ahead of you, and you see him in the distance:",predicative,NA,25,pugs,NA,2,NA,NA,graduated_college,small,NA,English,female,NA,NA,You and your friend see the following:,3,1571853311923,NA,NA,1,NA,NA,NA,congr,custom_main_text2,Your friend says: <br/><b>That one is small.</b>
683,<i>What do you think Speaker A meant? </i>,NA,The Empire State Building is tall relative to other,NA,NA,16,NA,NA,NA,I didn't notice any errors or problems with the pictures loading.,2,NA,susan,1,NA,NA,yes,NA,NA,"<b> Speaker A: ""The Empire State Building is tall.""</b>",47,buildings,This was a fun and very well explained task.  Thank you for the opportunity to participate in it.,NA,NA,NA,graduated_college,NA,comp_class_warmup,English,female,NA,NA,In the main trials you will be asked to rephrase something a person said. The utterance will contain a word that is <i>relative</i> and your task is to figure out what it is relative to. <br /> <br /> For example: <br /><br />,1,1571851860489,1,NA,1,NA,NA,"buildings, skyscrapers, houses, constructions (choose one)",NA,comp_class_warmup,NA
683,NA,shark,NA,NA,NA,16,warmup/goldfish.png,swordfish,This is a,I didn't notice any errors or problems with the pictures loading.,2,fish,susan,NA,goldfish,NA,yes,Please label the pictures below.,NA,NA,47,NA,This was a fun and very well explained task.  Thank you for the opportunity to participate in it.,NA,warmup/swordfish.jpg,fish,graduated_college,NA,NA,English,female,NA,fish,NA,1,1571851860489,1,This is a,1,These are both,goldfish,NA,NA,warmup1,NA
683,NA,swordfish,NA,NA,NA,16,warmup/goldfish.png,swordfish,This is a,I didn't notice any errors or problems with the pictures loading.,2,fish,susan,NA,goldfish,NA,yes,Please label the pictures below.,NA,NA,47,NA,This was a fun and very well explained task.  Thank you for the opportunity to participate in it.,NA,warmup/swordfish.jpg,fish,graduated_college,NA,NA,English,female,NA,fish,NA,1,1571851860489,2,This is a,1,These are both,goldfish,NA,NA,warmup1,NA
683,NA,boxer,NA,NA,NA,16,warmup/great-dane.jpg,pug,This is a,I didn't notice any errors or problems with the pictures loading.,2,dogs,susan,NA,great dane,NA,yes,Please label the pictures below.,NA,NA,47,NA,This was a fun and very well explained task.  Thank you for the opportunity to participate in it.,NA,warmup/pug.jpg,dogs,graduated_college,NA,NA,English,female,NA,dogs,NA,2,1571851860489,1,This is a,1,These are both,great dane,NA,NA,warmup1,NA
683,NA,pug,NA,NA,NA,16,warmup/great-dane.jpg,pug,This is a,I didn't notice any errors or problems with the pictures loading.,2,dogs,susan,NA,great dane,NA,yes,Please label the pictures below.,NA,NA,47,NA,This was a fun and very well explained task.  Thank you for the opportunity to participate in it.,NA,warmup/pug.jpg,dogs,graduated_college,NA,NA,English,female,NA,dogs,NA,2,1571851860489,2,This is a,1,These are both,great dane,NA,NA,warmup1,NA
683,NA,dandelion,NA,NA,NA,16,warmup/sunflower.png,dandelion,This is a,I didn't notice any errors or problems with the pictures loading.,2,flowers,susan,NA,sunflower,NA,yes,Please label the pictures below.,NA,NA,47,NA,This was a fun and very well explained task.  Thank you for the opportunity to participate in it.,NA,warmup/dandelion.jpg,flowers,graduated_college,NA,NA,English,female,NA,flowers,NA,3,1571851860489,1,This is a,1,These are both,sunflower,NA,NA,warmup1,NA
683,What do you think your friend meant?,NA,It is small relative to other,images/fish-parade-goldfish.png,images/goldfish.png,16,NA,NA,NA,I didn't notice any errors or problems with the pictures loading.,2,fish,susan,NA,NA,1,yes,"Your friend runs far ahead of you, and you see him in the distance:",predicative,NA,47,fish,This was a fun and very well explained task.  Thank you for the opportunity to participate in it.,2,NA,NA,graduated_college,small,NA,English,female,NA,NA,You and your friend see the following:,1,1571851860489,NA,NA,1,NA,NA,NA,congr,custom_main_text1,Your friend says: <br/><b>That one is small.</b>
683,What do you think your friend meant?,NA,It is big relative to other,images/flower-parade-sunflower.png,images/sunflower.png,16,NA,NA,NA,I didn't notice any errors or problems with the pictures loading.,2,flowers,susan,NA,NA,1,yes,"Your friend runs far ahead of you, and you see him in the distance:",predicative,NA,47,sunflowers,This was a fun and very well explained task.  Thank you for the opportunity to participate in it.,2,NA,NA,graduated_college,big,NA,English,female,NA,NA,You and your friend see the following:,2,1571851860489,NA,NA,1,NA,NA,NA,congr,custom_main_text1,Your friend says: <br/><b>That one is big.</b>
683,What do you think your friend meant?,NA,It is small relative to other,images/dog-parade-pug.png,images/pug.png,16,NA,NA,NA,I didn't notice any errors or problems with the pictures loading.,2,dogs2,susan,NA,NA,1,yes,"Your friend runs far ahead of you, and you see him in the distance:",predicative,NA,47,pugs,This was a fun and very well explained task.  Thank you for the opportunity to participate in it.,2,NA,NA,graduated_college,small,NA,English,female,NA,NA,You and your friend see the following:,3,1571851860489,NA,NA,1,NA,NA,NA,congr,custom_main_text1,Your friend says: <br/><b>That one is small.</b>
683,NA,sequoia,NA,NA,NA,16,warmup/bonsai.jpg,redwood or sequoia (choose one),This is a,I didn't notice any errors or problems with the pictures loading.,2,trees,susan,NA,bonsai,NA,yes,Please label the pictures below.,NA,NA,47,NA,This was a fun and very well explained task.  Thank you for the opportunity to participate in it.,NA,warmup/sequoia.png,trees,graduated_college,NA,NA,English,female,NA,trees,NA,1,1571851860489,1,This is a,1,These are both,bonzai,NA,NA,warmup2,NA
683,NA,sequoia,NA,NA,NA,16,warmup/bonsai.jpg,redwood or sequoia (choose one),This is a,I didn't notice any errors or problems with the pictures loading.,2,trees,susan,NA,bonsai,NA,yes,Please label the pictures below.,NA,NA,47,NA,This was a fun and very well explained task.  Thank you for the opportunity to participate in it.,NA,warmup/sequoia.png,trees,graduated_college,NA,NA,English,female,NA,trees,NA,1,1571851860489,2,This is a,1,These are both,bonsai,NA,NA,warmup2,NA
683,NA,hummingbird,NA,NA,NA,16,warmup/eagle.jpg,hummingbird,This is a,I didn't notice any errors or problems with the pictures loading.,2,birds,susan,NA,eagle,NA,yes,Please label the pictures below.,NA,NA,47,NA,This was a fun and very well explained task.  Thank you for the opportunity to participate in it.,NA,warmup/colibri.jpg,birds,graduated_college,NA,NA,English,female,NA,birds,NA,2,1571851860489,1,This is an,1,These are both,eagle,NA,NA,warmup2,NA
683,NA,chihuahua,NA,NA,NA,16,warmup/doberman.png,chihuahua,This is a,I didn't notice any errors or problems with the pictures loading.,2,dogs,susan,NA,doberman,NA,yes,Please label the pictures below.,NA,NA,47,NA,This was a fun and very well explained task.  Thank you for the opportunity to participate in it.,NA,warmup/chihuahua.jpg,dogs,graduated_college,NA,NA,English,female,NA,dogs,NA,3,1571851860489,1,This is a,1,These are both,great dane,NA,NA,warmup2,NA
683,NA,chihuahua,NA,NA,NA,16,warmup/doberman.png,chihuahua,This is a,I didn't notice any errors or problems with the pictures loading.,2,dogs,susan,NA,doberman,NA,yes,Please label the pictures below.,NA,NA,47,NA,This was a fun and very well explained task.  Thank you for the opportunity to participate in it.,NA,warmup/chihuahua.jpg,dogs,graduated_college,NA,NA,English,female,NA,dogs,NA,3,1571851860489,2,This is a,1,These are both,doberman,NA,NA,warmup2,NA
683,What do you think your friend meant?,NA,It is big relative to other,images/dog-parade-basic.png,images/doberman.png,16,NA,NA,NA,I didn't notice any errors or problems with the pictures loading.,2,dogs1,susan,NA,NA,0,yes,"Your friend runs far ahead of you, and you see him in the distance:",predicative,NA,47,dogs,This was a fun and very well explained task.  Thank you for the opportunity to participate in it.,2,NA,NA,graduated_college,big,NA,English,female,NA,NA,You and your friend see the following:,1,1571851860489,NA,NA,1,NA,NA,NA,basic,custom_main_text2,Your friend says: <br/><b>That one is big.</b>
683,What do you think your friend meant?,NA,It is big relative to other,images/tree-parade-basic.png,images/redwood.png,16,NA,NA,NA,I didn't notice any errors or problems with the pictures loading.,2,trees,susan,NA,NA,0,yes,"Your friend runs far ahead of you, and you see him in the distance:",predicative,NA,47,trees,This was a fun and very well explained task.  Thank you for the opportunity to participate in it.,2,NA,NA,graduated_college,big,NA,English,female,NA,NA,You and your friend see the following:,2,1571851860489,NA,NA,1,NA,NA,NA,basic,custom_main_text2,Your friend says: <br/><b>That one is big.</b>
683,What do you think your friend meant?,NA,It is small relative to other,images/bird-parade-basic.png,images/hummingbird.png,16,NA,NA,NA,I didn't notice any errors or problems with the pictures loading.,2,birds,susan,NA,NA,0,yes,"Your friend runs far ahead of you, and you see him in the distance:",predicative,NA,47,birds,This was a fun and very well explained task.  Thank you for the opportunity to participate in it.,2,NA,NA,graduated_college,small,NA,English,female,NA,NA,You and your friend see the following:,3,1571851860489,NA,NA,1,NA,NA,NA,basic,custom_main_text2,Your friend says: <br/><b>That one is small.</b>
674,<i>What do you think Speaker A meant? </i>,NA,The Empire State Building is tall relative to other,NA,NA,16,NA,NA,NA,No,1,NA,mary,1,NA,NA,yes,NA,NA,"<b> Speaker A: ""The Empire State Building is tall.""</b>",35,buildings,Thanks,NA,NA,NA,graduated_college,NA,comp_class_warmup,English,female,NA,NA,In the main trials you will be asked to rephrase something a person said. The utterance will contain a word that is <i>relative</i> and your task is to figure out what it is relative to. <br /> <br /> For example: <br /><br />,1,1571851805145,1,NA,1,NA,NA,"buildings, skyscrapers, houses, constructions (choose one)",NA,comp_class_warmup,NA
674,NA,tree,NA,NA,NA,16,warmup/bonsai.jpg,redwood or sequoia (choose one),This is a,No,1,trees,mary,NA,bonsai,NA,yes,Please label the pictures below.,NA,NA,35,NA,Thanks,NA,warmup/sequoia.png,trees,graduated_college,NA,NA,English,female,NA,trees,NA,1,1571851805145,1,This is a,1,These are both,tree,NA,NA,warmup1,NA
674,NA,redwood,NA,NA,NA,16,warmup/bonsai.jpg,redwood or sequoia (choose one),This is a,No,1,trees,mary,NA,bonsai,NA,yes,Please label the pictures below.,NA,NA,35,NA,Thanks,NA,warmup/sequoia.png,trees,graduated_college,NA,NA,English,female,NA,trees,NA,1,1571851805145,2,This is a,1,These are both,bonsai,NA,NA,warmup1,NA
674,NA,pug,NA,NA,NA,16,warmup/great-dane.jpg,pug,This is a,No,1,dogs,mary,NA,great dane,NA,yes,Please label the pictures below.,NA,NA,35,NA,Thanks,NA,warmup/pug.jpg,dogs,graduated_college,NA,NA,English,female,NA,dogs,NA,2,1571851805145,1,This is a,1,These are both,great dane,NA,NA,warmup1,NA
674,NA,chihuahua,NA,NA,NA,16,warmup/doberman.png,chihuahua,This is a,No,1,dogs,mary,NA,doberman,NA,yes,Please label the pictures below.,NA,NA,35,NA,Thanks,NA,warmup/chihuahua.jpg,dogs,graduated_college,NA,NA,English,female,NA,dogs,NA,3,1571851805145,1,This is a,1,These are both,doberman,NA,NA,warmup1,NA
674,What do you think your friend meant?,NA,It is big relative to other,images/dog-parade-basic2.png,images/great-dane.png,16,NA,NA,NA,No,1,dogs2,mary,NA,NA,0,yes,"Your friend runs far ahead of you, and you see him in the distance:",predicative,NA,35,dogs,Thanks,2,NA,NA,graduated_college,big,NA,English,female,NA,NA,You and your friend see the following:,1,1571851805145,NA,NA,1,NA,NA,NA,basic,custom_main_text1,Your friend says: <br/><b>That one is big.</b>
674,What do you think your friend meant?,NA,It is big relative to other,images/dog-parade-doberman.png,images/doberman.png,16,NA,NA,NA,No,1,dogs1,mary,NA,NA,1,yes,"Your friend runs far ahead of you, and you see him in the distance:",predicative,NA,35,dobermans,Thanks,2,NA,NA,graduated_college,big,NA,English,female,NA,NA,You and your friend see the following:,2,1571851805145,NA,NA,1,NA,NA,NA,congr,custom_main_text1,Your friend says: <br/><b>That one is big.</b>
674,What do you think your friend meant?,NA,It is big relative to other,images/tree-parade-redwood.png,images/redwood.png,16,NA,NA,NA,No,1,trees,mary,NA,NA,1,yes,"Your friend runs far ahead of you, and you see him in the distance:",predicative,NA,35,trees,Thanks,2,NA,NA,graduated_college,big,NA,English,female,NA,NA,You and your friend see the following:,3,1571851805145,NA,NA,1,NA,NA,NA,congr,custom_main_text1,Your friend says: <br/><b>That one is big.</b>
674,NA,daisy,NA,NA,NA,16,warmup/sunflower.png,dandelion,This is a,No,1,flowers,mary,NA,sunflower,NA,yes,Please label the pictures below.,NA,NA,35,NA,Thanks,NA,warmup/dandelion.jpg,flowers,graduated_college,NA,NA,English,female,NA,flowers,NA,1,1571851805145,1,This is a,1,These are both,sunflower,NA,NA,warmup2,NA
674,NA,dandelion,NA,NA,NA,16,warmup/sunflower.png,dandelion,This is a,No,1,flowers,mary,NA,sunflower,NA,yes,Please label the pictures below.,NA,NA,35,NA,Thanks,NA,warmup/dandelion.jpg,flowers,graduated_college,NA,NA,English,female,NA,flowers,NA,1,1571851805145,2,This is a,1,These are both,sunflower,NA,NA,warmup2,NA
674,NA,swordfish,NA,NA,NA,16,warmup/goldfish.png,swordfish,This is a,No,1,fish,mary,NA,goldfish,NA,yes,Please label the pictures below.,NA,NA,35,NA,Thanks,NA,warmup/swordfish.jpg,fish,graduated_college,NA,NA,English,female,NA,fish,NA,2,1571851805145,1,This is a,1,These are both,goldfish,NA,NA,warmup2,NA
674,NA,hummingbird,NA,NA,NA,16,warmup/eagle.jpg,hummingbird,This is a,No,1,birds,mary,NA,eagle,NA,yes,Please label the pictures below.,NA,NA,35,NA,Thanks,NA,warmup/colibri.jpg,birds,graduated_college,NA,NA,English,female,NA,birds,NA,3,1571851805145,1,This is an,1,These are both,eagle,NA,NA,warmup2,NA
674,What do you think your friend meant?,NA,It is small relative to other,images/fish-parade-basic.png,images/goldfish.png,16,NA,NA,NA,No,1,fish,mary,NA,NA,0,yes,"Your friend runs far ahead of you, and you see him in the distance:",predicative,NA,35,fish,Thanks,2,NA,NA,graduated_college,small,NA,English,female,NA,NA,You and your friend see the following:,1,1571851805145,NA,NA,1,NA,NA,NA,basic,custom_main_text2,Your friend says: <br/><b>That one is small.</b>
674,What do you think your friend meant?,NA,It is small relative to other,images/flower-parade-basic.png,images/dandelion.png,16,NA,NA,NA,No,1,flowers,mary,NA,NA,0,yes,"Your friend runs far ahead of you, and you see him in the distance:",predicative,NA,35,flowers,Thanks,2,NA,NA,graduated_college,small,NA,English,female,NA,NA,You and your friend see the following:,2,1571851805145,NA,NA,1,NA,NA,NA,basic,custom_main_text2,Your friend says: <br/><b>That one is small.</b>
674,What do you think your friend meant?,NA,It is small relative to other,images/bird-parade-hummingbird.png,images/hummingbird.png,16,NA,NA,NA,No,1,birds,mary,NA,NA,1,yes,"Your friend runs far ahead of you, and you see him in the distance:",predicative,NA,35,hummingbirds,Thanks,2,NA,NA,graduated_college,small,NA,English,female,NA,NA,You and your friend see the following:,3,1571851805145,NA,NA,1,NA,NA,NA,congr,custom_main_text2,Your friend says: <br/><b>That one is small.</b>
673,<i>What do you think Speaker A meant? </i>,NA,The Empire State Building is tall relative to other,NA,NA,16,NA,NA,NA,no,1,NA,elizabeth,1,NA,NA,yes,NA,NA,"<b> Speaker A: ""The Empire State Building is tall.""</b>",51,buildings,NA,NA,NA,NA,some_college,NA,comp_class_warmup,english,female,NA,NA,In the main trials you will be asked to rephrase something a person said. The utterance will contain a word that is <i>relative</i> and your task is to figure out what it is relative to. <br /> <br /> For example: <br /><br />,1,1571851313290,1,NA,1,NA,NA,"buildings, skyscrapers, houses, constructions (choose one)",NA,comp_class_warmup,NA
673,NA,chiuaua,NA,NA,NA,16,warmup/doberman.png,chihuahua,This is a,no,1,dogs,elizabeth,NA,doberman,NA,yes,Please label the pictures below.,NA,NA,51,NA,NA,NA,warmup/chihuahua.jpg,dogs,some_college,NA,NA,english,female,NA,dogs,NA,1,1571851313290,1,This is a,1,These are both,doberman pincher,NA,NA,warmup1,NA
673,NA,chihuahua,NA,NA,NA,16,warmup/doberman.png,chihuahua,This is a,no,1,dogs,elizabeth,NA,doberman,NA,yes,Please label the pictures below.,NA,NA,51,NA,NA,NA,warmup/chihuahua.jpg,dogs,some_college,NA,NA,english,female,NA,dogs,NA,1,1571851313290,2,This is a,1,These are both,doberman,NA,NA,warmup1,NA
673,NA,oak,NA,NA,NA,16,warmup/bonsai.jpg,redwood or sequoia (choose one),This is a,no,1,trees,elizabeth,NA,bonsai,NA,yes,Please label the pictures below.,NA,NA,51,NA,NA,NA,warmup/sequoia.png,trees,some_college,NA,NA,english,female,NA,trees,NA,2,1571851313290,1,This is a,1,These are both,bonzai,NA,NA,warmup1,NA
673,NA,redwood,NA,NA,NA,16,warmup/bonsai.jpg,redwood or sequoia (choose one),This is a,no,1,trees,elizabeth,NA,bonsai,NA,yes,Please label the pictures below.,NA,NA,51,NA,NA,NA,warmup/sequoia.png,trees,some_college,NA,NA,english,female,NA,trees,NA,2,1571851313290,2,This is a,1,These are both,bonsai,NA,NA,warmup1,NA
673,NA,swordfish,NA,NA,NA,16,warmup/goldfish.png,swordfish,This is a,no,1,fish,elizabeth,NA,goldfish,NA,yes,Please label the pictures below.,NA,NA,51,NA,NA,NA,warmup/swordfish.jpg,fish,some_college,NA,NA,english,female,NA,fish,NA,3,1571851313290,1,This is a,1,These are both,goldfish,NA,NA,warmup1,NA
673,What do you think your friend meant?,NA,It is big relative to other,images/dog-parade-basic.png,images/doberman.png,16,NA,NA,NA,no,1,dogs1,elizabeth,NA,NA,0,yes,"Your friend runs far ahead of you, and you see him in the distance:",predicative,NA,51,dogs,NA,2,NA,NA,some_college,big,NA,english,female,NA,NA,You and your friend see the following:,1,1571851313290,NA,NA,1,NA,NA,NA,basic,custom_main_text1,Your friend says: <br/><b>That one is big.</b>
673,What do you think your friend meant?,NA,It is big relative to other,images/fish-parade-basic.png,images/swordfish.png,16,NA,NA,NA,no,1,fish,elizabeth,NA,NA,0,yes,"Your friend runs far ahead of you, and you see him in the distance:",predicative,NA,51,fish,NA,2,NA,NA,some_college,big,NA,english,female,NA,NA,You and your friend see the following:,2,1571851313290,NA,NA,1,NA,NA,NA,basic,custom_main_text1,Your friend says: <br/><b>That one is big.</b>
673,What do you think your friend meant?,NA,It is big relative to other,images/tree-parade-redwood.png,images/redwood.png,16,NA,NA,NA,no,1,trees,elizabeth,NA,NA,1,yes,"Your friend runs far ahead of you, and you see him in the distance:",predicative,NA,51,trees,NA,2,NA,NA,some_college,big,NA,english,female,NA,NA,You and your friend see the following:,3,1571851313290,NA,NA,1,NA,NA,NA,congr,custom_main_text1,Your friend says: <br/><b>That one is big.</b>
673,NA,bulldog,NA,NA,NA,16,warmup/great-dane.jpg,pug,This is a,no,1,dogs,elizabeth,NA,great dane,NA,yes,Please label the pictures below.,NA,NA,51,NA,NA,NA,warmup/pug.jpg,dogs,some_college,NA,NA,english,female,NA,dogs,NA,1,1571851313290,1,This is a,1,These are both,hound,NA,NA,warmup2,NA
673,NA,pug,NA,NA,NA,16,warmup/great-dane.jpg,pug,This is a,no,1,dogs,elizabeth,NA,great dane,NA,yes,Please label the pictures below.,NA,NA,51,NA,NA,NA,warmup/pug.jpg,dogs,some_college,NA,NA,english,female,NA,dogs,NA,1,1571851313290,2,This is a,1,These are both,great dane,NA,NA,warmup2,NA
673,NA,dandelion,NA,NA,NA,16,warmup/sunflower.png,dandelion,This is a,no,1,flowers,elizabeth,NA,sunflower,NA,yes,Please label the pictures below.,NA,NA,51,NA,NA,NA,warmup/dandelion.jpg,flower,some_college,NA,NA,english,female,NA,flowers,NA,2,1571851313290,1,This is a,1,These are both,sunflower,NA,NA,warmup2,NA
673,NA,dandelion,NA,NA,NA,16,warmup/sunflower.png,dandelion,This is a,no,1,flowers,elizabeth,NA,sunflower,NA,yes,Please label the pictures below.,NA,NA,51,NA,NA,NA,warmup/dandelion.jpg,flowers,some_college,NA,NA,english,female,NA,flowers,NA,2,1571851313290,2,This is a,1,These are both,sunflower,NA,NA,warmup2,NA
673,NA,hummingbird,NA,NA,NA,16,warmup/eagle.jpg,hummingbird,This is a,no,1,birds,elizabeth,NA,eagle,NA,yes,Please label the pictures below.,NA,NA,51,NA,NA,NA,warmup/colibri.jpg,birds,some_college,NA,NA,english,female,NA,birds,NA,3,1571851313290,1,This is an,1,These are both,eagle,NA,NA,warmup2,NA
673,What do you think your friend meant?,NA,It is small relative to other,images/bird-parade-basic.png,images/hummingbird.png,16,NA,NA,NA,no,1,birds,elizabeth,NA,NA,0,yes,"Your friend runs far ahead of you, and you see him in the distance:",predicative,NA,51,birds,NA,2,NA,NA,some_college,small,NA,english,female,NA,NA,You and your friend see the following:,1,1571851313290,NA,NA,1,NA,NA,NA,basic,custom_main_text2,Your friend says: <br/><b>That one is small.</b>
673,What do you think your friend meant?,NA,It is small relative to other,images/dog-parade-pug.png,images/pug.png,16,NA,NA,NA,no,1,dogs2,elizabeth,NA,NA,1,yes,"Your friend runs far ahead of you, and you see him in the distance:",predicative,NA,51,dogs,NA,2,NA,NA,some_college,small,NA,english,female,NA,NA,You and your friend see the following:,2,1571851313290,NA,NA,1,NA,NA,NA,congr,custom_main_text2,Your friend says: <br/><b>That one is small.</b>
673,What do you think your friend meant?,NA,It is small relative to other,images/flower-parade-dandelion.png,images/dandelion.png,16,NA,NA,NA,no,1,flowers,elizabeth,NA,NA,1,yes,"Your friend runs far ahead of you, and you see him in the distance:",predicative,NA,51,flowers,NA,2,NA,NA,some_college,small,NA,english,female,NA,NA,You and your friend see the following:,3,1571851313290,NA,NA,1,NA,NA,NA,congr,custom_main_text2,Your friend says: <br/><b>That one is small.</b>
671,<i>What do you think Speaker A meant? </i>,NA,The Empire State Building is tall relative to other,NA,NA,16,NA,NA,NA,NA,NA,NA,Barbara,1,NA,NA,NA,NA,NA,"<b> Speaker A: ""The Empire State Building is tall.""</b>",NA,buildings,NA,NA,NA,NA,NA,NA,comp_class_warmup,NA,NA,NA,NA,In the main trials you will be asked to rephrase something a person said. The utterance will contain a word that is <i>relative</i> and your task is to figure out what it is relative to. <br /> <br /> For example: <br /><br />,1,1571851842725,1,NA,NA,NA,NA,"buildings, skyscrapers, houses, constructions (choose one)",NA,comp_class_warmup,NA
671,NA,pug,NA,NA,NA,16,warmup/great-dane.jpg,pug,This is a,NA,NA,dogs,Barbara,NA,great dane,NA,NA,Please label the pictures below.,NA,NA,NA,NA,NA,NA,warmup/pug.jpg,dogs,NA,NA,NA,NA,NA,NA,dogs,NA,1,1571851842725,1,This is a,NA,These are both,great dane,NA,NA,warmup1,NA
671,NA,danelion,NA,NA,NA,16,warmup/sunflower.png,dandelion,This is a,NA,NA,flowers,Barbara,NA,sunflower,NA,NA,Please label the pictures below.,NA,NA,NA,NA,NA,NA,warmup/dandelion.jpg,flowers,NA,NA,NA,NA,NA,NA,flowers,NA,2,1571851842725,1,This is a,NA,These are both,sunflower,NA,NA,warmup1,NA
671,NA,dandelion,NA,NA,NA,16,warmup/sunflower.png,dandelion,This is a,NA,NA,flowers,Barbara,NA,sunflower,NA,NA,Please label the pictures below.,NA,NA,NA,NA,NA,NA,warmup/dandelion.jpg,flowers,NA,NA,NA,NA,NA,NA,flowers,NA,2,1571851842725,2,This is a,NA,These are both,sunflower,NA,NA,warmup1,NA
671,NA,hummingbird,NA,NA,NA,16,warmup/eagle.jpg,hummingbird,This is a,NA,NA,birds,Barbara,NA,eagle,NA,NA,Please label the pictures below.,NA,NA,NA,NA,NA,NA,warmup/colibri.jpg,birds,NA,NA,NA,NA,NA,NA,birds,NA,3,1571851842725,1,This is an,NA,These are both,eagle,NA,NA,warmup1,NA
671,What do you think your friend meant?,NA,It is small relative to other,images/dog-parade-pug.png,images/pug.png,16,NA,NA,NA,NA,NA,dogs2,Barbara,NA,NA,1,NA,"Your friend runs far ahead of you, and you see him in the distance:",predicative,NA,NA,dogs,NA,2,NA,NA,NA,small,NA,NA,NA,NA,NA,You and your friend see the following:,1,1571851842725,NA,NA,NA,NA,NA,NA,congr,custom_main_text1,Your friend says: <br/><b>That one is small.</b>
671,What do you think your friend meant?,NA,It is big relative to other,images/bird-parade-eagle.png,images/eagle.png,16,NA,NA,NA,NA,NA,birds,Barbara,NA,NA,1,NA,"Your friend runs far ahead of you, and you see him in the distance:",predicative,NA,NA,eagles,NA,2,NA,NA,NA,big,NA,NA,NA,NA,NA,You and your friend see the following:,2,1571851842725,NA,NA,NA,NA,NA,NA,congr,custom_main_text1,Your friend says: <br/><b>That one is big.</b>
671,What do you think your friend meant?,NA,It is big relative to other,images/flower-parade-sunflower.png,images/sunflower.png,16,NA,NA,NA,NA,NA,flowers,Barbara,NA,NA,1,NA,"Your friend runs far ahead of you, and you see him in the distance:",predicative,NA,NA,sunflowers,NA,2,NA,NA,NA,big,NA,NA,NA,NA,NA,You and your friend see the following:,3,1571851842725,NA,NA,NA,NA,NA,NA,congr,custom_main_text1,Your friend says: <br/><b>That one is big.</b>
671,NA,swordfish,NA,NA,NA,16,warmup/goldfish.png,swordfish,This is a,NA,NA,fish,Barbara,NA,goldfish,NA,NA,Please label the pictures below.,NA,NA,NA,NA,NA,NA,warmup/swordfish.jpg,fish,NA,NA,NA,NA,NA,NA,fish,NA,1,1571851842725,1,This is a,NA,These are both,goldfish,NA,NA,warmup2,NA
671,NA,dog,NA,NA,NA,16,warmup/doberman.png,chihuahua,This is a,NA,NA,dogs,Barbara,NA,doberman,NA,NA,Please label the pictures below.,NA,NA,NA,NA,NA,NA,warmup/chihuahua.jpg,dogs,NA,NA,NA,NA,NA,NA,dogs,NA,2,1571851842725,1,This is a,NA,These are both,great dane,NA,NA,warmup2,NA
671,NA,chihuahua,NA,NA,NA,16,warmup/doberman.png,chihuahua,This is a,NA,NA,dogs,Barbara,NA,doberman,NA,NA,Please label the pictures below.,NA,NA,NA,NA,NA,NA,warmup/chihuahua.jpg,dogs,NA,NA,NA,NA,NA,NA,dogs,NA,2,1571851842725,2,This is a,NA,These are both,great dane,NA,NA,warmup2,NA
671,NA,chihuahua,NA,NA,NA,16,warmup/doberman.png,chihuahua,This is a,NA,NA,dogs,Barbara,NA,doberman,NA,NA,Please label the pictures below.,NA,NA,NA,NA,NA,NA,warmup/chihuahua.jpg,dogs,NA,NA,NA,NA,NA,NA,dogs,NA,2,1571851842725,3,This is a,NA,These are both,great dane,NA,NA,warmup2,NA
671,NA,chihuahua,NA,NA,NA,16,warmup/doberman.png,chihuahua,This is a,NA,NA,dogs,Barbara,NA,doberman,NA,NA,Please label the pictures below.,NA,NA,NA,NA,NA,NA,warmup/chihuahua.jpg,dogs,NA,NA,NA,NA,NA,NA,dogs,NA,2,1571851842725,4,This is a,NA,These are both,doberman,NA,NA,warmup2,NA
671,NA,redwood,NA,NA,NA,16,warmup/bonsai.jpg,redwood or sequoia (choose one),This is a,NA,NA,trees,Barbara,NA,bonsai,NA,NA,Please label the pictures below.,NA,NA,NA,NA,NA,NA,warmup/sequoia.png,trees,NA,NA,NA,NA,NA,NA,trees,NA,3,1571851842725,1,This is a,NA,These are both,bonsai,NA,NA,warmup2,NA
671,What do you think your friend meant?,NA,It is small relative to other,images/dog-parade-basic.png,images/chihuahua.png,16,NA,NA,NA,NA,NA,dogs1,Barbara,NA,NA,0,NA,"Your friend runs far ahead of you, and you see him in the distance:",predicative,NA,NA,dogs,NA,2,NA,NA,NA,small,NA,NA,NA,NA,NA,You and your friend see the following:,1,1571851842725,NA,NA,NA,NA,NA,NA,basic,custom_main_text2,Your friend says: <br/><b>That one is small.</b>
