submission_id,question,response1,sentence_left,startDate,context_picture,experiment_id,picture2,correct1,question1,problems,enjoyment,hit_id,item,botresponse,trials,assignment_id,correct2,pic_spec,understand,text,condition,sentence,age,response,comments,ref_spec,picture1,response3,education,target_size,name,worker_id,languages,sex,RT,correct3,context,trial_number,startTime,attempts,question3,fairprice,question2,response2,correct,adj_cond,trial_name
492,<i>What do you think Speaker A meant? </i>,NA,The Empire State Building is tall relative to other ,Fri Sep 06 2019 12:11:27 GMT-0600 (Mountain Daylight Time),NA,12,NA,NA,NA,None,2,3I7KR83SNA1HVEN1R51IUCB7OZQ9KA,NA,margaret,1,3KJYX6QCMAZN4LSF2NB49ZWFR58JVF,NA,NA,yes,NA,NA,"<b> Speaker A: ""The Empire State Building is tall.""</b>",35,buildings.,Interesting study!,NA,NA,NA,graduated_high_school,NA,comp_class_warmup,A6SF30ZZJMJ1N,English,male,NA,NA,In the main trials you will be asked to rephrase something a person said. The utterance will contain a word that is <i>relative</i> and your task is to figure out what it is relative to. <br /> <br /> For example: <br /><br />,1,1567793487357,1,NA,1.10,NA,NA,"buildings, scyscrapers, houses, constructions (choose one)",NA,comp_class_warmup
492,<i>What do you think Speaker A meant? </i>,NA,The Empire State Building is tall relative to other ,Fri Sep 06 2019 12:11:27 GMT-0600 (Mountain Daylight Time),NA,12,NA,NA,NA,None,2,3I7KR83SNA1HVEN1R51IUCB7OZQ9KA,NA,margaret,1,3KJYX6QCMAZN4LSF2NB49ZWFR58JVF,NA,NA,yes,NA,NA,"<b> Speaker A: ""The Empire State Building is tall.""</b>",35,buildings,Interesting study!,NA,NA,NA,graduated_high_school,NA,comp_class_warmup,A6SF30ZZJMJ1N,English,male,NA,NA,In the main trials you will be asked to rephrase something a person said. The utterance will contain a word that is <i>relative</i> and your task is to figure out what it is relative to. <br /> <br /> For example: <br /><br />,1,1567793487357,2,NA,1.10,NA,NA,"buildings, scyscrapers, houses, constructions (choose one)",NA,comp_class_warmup
492,NA,dog,NA,Fri Sep 06 2019 12:11:27 GMT-0600 (Mountain Daylight Time),NA,12,warmup/great-dane.jpg,pug,This is a ,None,2,3I7KR83SNA1HVEN1R51IUCB7OZQ9KA,dogs,margaret,NA,3KJYX6QCMAZN4LSF2NB49ZWFR58JVF,great dane,NA,yes,Please label the pictures below.,NA,NA,35,NA,Interesting study!,NA,warmup/pug.jpg,dogs,graduated_high_school,NA,NA,A6SF30ZZJMJ1N,English,male,NA,dogs,NA,1,1567793487357,1,This is a ,1.10,These are both,dog,NA,NA,warmup1
492,NA,pug,NA,Fri Sep 06 2019 12:11:27 GMT-0600 (Mountain Daylight Time),NA,12,warmup/great-dane.jpg,pug,This is a ,None,2,3I7KR83SNA1HVEN1R51IUCB7OZQ9KA,dogs,margaret,NA,3KJYX6QCMAZN4LSF2NB49ZWFR58JVF,great dane,NA,yes,Please label the pictures below.,NA,NA,35,NA,Interesting study!,NA,warmup/pug.jpg,dogs,graduated_high_school,NA,NA,A6SF30ZZJMJ1N,English,male,NA,dogs,NA,1,1567793487357,2,This is a ,1.10,These are both,great dane,NA,NA,warmup1
492,NA,humming bird,NA,Fri Sep 06 2019 12:11:27 GMT-0600 (Mountain Daylight Time),NA,12,warmup/eagle.jpg,hummingbird,This is a ,None,2,3I7KR83SNA1HVEN1R51IUCB7OZQ9KA,birds,margaret,NA,3KJYX6QCMAZN4LSF2NB49ZWFR58JVF,eagle,NA,yes,Please label the pictures below.,NA,NA,35,NA,Interesting study!,NA,warmup/colibri.jpg,birds,graduated_high_school,NA,NA,A6SF30ZZJMJ1N,English,male,NA,birds,NA,2,1567793487357,1,This is an ,1.10,These are both,eagle,NA,NA,warmup1
492,NA,hummingbird,NA,Fri Sep 06 2019 12:11:27 GMT-0600 (Mountain Daylight Time),NA,12,warmup/eagle.jpg,hummingbird,This is a ,None,2,3I7KR83SNA1HVEN1R51IUCB7OZQ9KA,birds,margaret,NA,3KJYX6QCMAZN4LSF2NB49ZWFR58JVF,eagle,NA,yes,Please label the pictures below.,NA,NA,35,NA,Interesting study!,NA,warmup/colibri.jpg,birds,graduated_high_school,NA,NA,A6SF30ZZJMJ1N,English,male,NA,birds,NA,2,1567793487357,2,This is an ,1.10,These are both,eagle,NA,NA,warmup1
492,NA,chihuihui,NA,Fri Sep 06 2019 12:11:27 GMT-0600 (Mountain Daylight Time),NA,12,warmup/doberman.png,chihuahua,This is a ,None,2,3I7KR83SNA1HVEN1R51IUCB7OZQ9KA,dogs,margaret,NA,3KJYX6QCMAZN4LSF2NB49ZWFR58JVF,doberman,NA,yes,Please label the pictures below.,NA,NA,35,NA,Interesting study!,NA,warmup/chihuahua.jpg,dogs,graduated_high_school,NA,NA,A6SF30ZZJMJ1N,English,male,NA,dogs,NA,3,1567793487357,1,This is a ,1.10,These are both,doberman pincher,NA,NA,warmup1
492,NA,chihuahua,NA,Fri Sep 06 2019 12:11:27 GMT-0600 (Mountain Daylight Time),NA,12,warmup/doberman.png,chihuahua,This is a ,None,2,3I7KR83SNA1HVEN1R51IUCB7OZQ9KA,dogs,margaret,NA,3KJYX6QCMAZN4LSF2NB49ZWFR58JVF,doberman,NA,yes,Please label the pictures below.,NA,NA,35,NA,Interesting study!,NA,warmup/chihuahua.jpg,dogs,graduated_high_school,NA,NA,A6SF30ZZJMJ1N,English,male,NA,dogs,NA,3,1567793487357,2,This is a ,1.10,These are both,doberman,NA,NA,warmup1
492,What do you think your friend meant?,NA,It is small relative to other ,Fri Sep 06 2019 12:11:27 GMT-0600 (Mountain Daylight Time),images/dog-parade-great-dane.png,12,NA,NA,NA,None,2,3I7KR83SNA1HVEN1R51IUCB7OZQ9KA,dogs2,margaret,NA,3KJYX6QCMAZN4LSF2NB49ZWFR58JVF,NA,2,yes,"You and your friend see another member of the group <br />(not pictured), and your friend says: <br/><b>That great dane is small.</b>",predicative,NA,35,great danes,Interesting study!,0,NA,NA,graduated_high_school,small,NA,A6SF30ZZJMJ1N,English,male,,NA,You and your friend see the following:,1,1567793487357,NA,NA,1.10,NA,NA,NA,incongr,custom_main_text1
492,What do you think your friend meant?,NA,It is small relative to other ,Fri Sep 06 2019 12:11:27 GMT-0600 (Mountain Daylight Time),images/dog-parade-chihuahua.png,12,NA,NA,NA,None,2,3I7KR83SNA1HVEN1R51IUCB7OZQ9KA,dogs1,margaret,NA,3KJYX6QCMAZN4LSF2NB49ZWFR58JVF,NA,1,yes,"You and your friend see another member of the group <br />(not pictured), and your friend says: <br/><b>That one is small.</b>",predicative,NA,35,small dogs,Interesting study!,1,NA,NA,graduated_high_school,small,NA,A6SF30ZZJMJ1N,English,male,,NA,You and your friend see the following:,2,1567793487357,NA,NA,1.10,NA,NA,NA,congr,custom_main_text1
492,What do you think your friend meant?,NA,It is small relative to other ,Fri Sep 06 2019 12:11:27 GMT-0600 (Mountain Daylight Time),images/bird-parade-hummingbird.png,12,NA,NA,NA,None,2,3I7KR83SNA1HVEN1R51IUCB7OZQ9KA,birds,margaret,NA,3KJYX6QCMAZN4LSF2NB49ZWFR58JVF,NA,1,yes,"You and your friend see another member of the group <br />(not pictured), and your friend says: <br/><b>That one is small.</b>",predicative,NA,35,hummingbirds,Interesting study!,1,NA,NA,graduated_high_school,small,NA,A6SF30ZZJMJ1N,English,male,,NA,You and your friend see the following:,3,1567793487357,NA,NA,1.10,NA,NA,NA,congr,custom_main_text1
492,NA,dandylion,NA,Fri Sep 06 2019 12:11:27 GMT-0600 (Mountain Daylight Time),NA,12,warmup/sunflower.png,dandelion,This is a ,None,2,3I7KR83SNA1HVEN1R51IUCB7OZQ9KA,flowers,margaret,NA,3KJYX6QCMAZN4LSF2NB49ZWFR58JVF,sunflower,NA,yes,Please label the pictures below.,NA,NA,35,NA,Interesting study!,NA,warmup/dandelion.jpg,flowers,graduated_high_school,NA,NA,A6SF30ZZJMJ1N,English,male,NA,flowers,NA,1,1567793487357,1,This is a ,1.10,These are both,sunflower,NA,NA,warmup2
492,NA,dandelion,NA,Fri Sep 06 2019 12:11:27 GMT-0600 (Mountain Daylight Time),NA,12,warmup/sunflower.png,dandelion,This is a ,None,2,3I7KR83SNA1HVEN1R51IUCB7OZQ9KA,flowers,margaret,NA,3KJYX6QCMAZN4LSF2NB49ZWFR58JVF,sunflower,NA,yes,Please label the pictures below.,NA,NA,35,NA,Interesting study!,NA,warmup/dandelion.jpg,flowers,graduated_high_school,NA,NA,A6SF30ZZJMJ1N,English,male,NA,flowers,NA,1,1567793487357,2,This is a ,1.10,These are both,sunflower,NA,NA,warmup2
492,NA,sequoia,NA,Fri Sep 06 2019 12:11:27 GMT-0600 (Mountain Daylight Time),NA,12,warmup/bonsai.jpg,redwood or sequoia (choose one),This is a ,None,2,3I7KR83SNA1HVEN1R51IUCB7OZQ9KA,trees,margaret,NA,3KJYX6QCMAZN4LSF2NB49ZWFR58JVF,bonsai,NA,yes,Please label the pictures below.,NA,NA,35,NA,Interesting study!,NA,warmup/sequoia.png,trees,graduated_high_school,NA,NA,A6SF30ZZJMJ1N,English,male,NA,trees,NA,2,1567793487357,1,This is a ,1.10,These are both,bonsai,NA,NA,warmup2
492,NA,swordfish,NA,Fri Sep 06 2019 12:11:27 GMT-0600 (Mountain Daylight Time),NA,12,warmup/goldfish.png,swordfish,This is a ,None,2,3I7KR83SNA1HVEN1R51IUCB7OZQ9KA,fish,margaret,NA,3KJYX6QCMAZN4LSF2NB49ZWFR58JVF,goldfish,NA,yes,Please label the pictures below.,NA,NA,35,NA,Interesting study!,NA,warmup/swordfish.jpg,fish,graduated_high_school,NA,NA,A6SF30ZZJMJ1N,English,male,NA,fish,NA,3,1567793487357,1,This is a ,1.10,These are both,goldfish,NA,NA,warmup2
492,What do you think your friend meant?,NA,It is big relative to other ,Fri Sep 06 2019 12:11:27 GMT-0600 (Mountain Daylight Time),images/tree-parade-basic.png,12,NA,NA,NA,None,2,3I7KR83SNA1HVEN1R51IUCB7OZQ9KA,trees,margaret,NA,3KJYX6QCMAZN4LSF2NB49ZWFR58JVF,NA,0,yes,"You and your friend see another member of the group <br />(not pictured), and your friend says: <br/><b>That one is big.</b>",predicative,NA,35,trees,Interesting study!,1,NA,NA,graduated_high_school,big,NA,A6SF30ZZJMJ1N,English,male,,NA,You and your friend see the following:,1,1567793487357,NA,NA,1.10,NA,NA,NA,basic,custom_main_text2
492,What do you think your friend meant?,NA,It is small relative to other ,Fri Sep 06 2019 12:11:27 GMT-0600 (Mountain Daylight Time),images/flower-parade-basic.png,12,NA,NA,NA,None,2,3I7KR83SNA1HVEN1R51IUCB7OZQ9KA,flowers,margaret,NA,3KJYX6QCMAZN4LSF2NB49ZWFR58JVF,NA,0,yes,"You and your friend see another member of the group <br />(not pictured), and your friend says: <br/><b>That dandelion is small.</b>",predicative,NA,35,danelions,Interesting study!,0,NA,NA,graduated_high_school,small,NA,A6SF30ZZJMJ1N,English,male,,NA,You and your friend see the following:,2,1567793487357,NA,NA,1.10,NA,NA,NA,basic,custom_main_text2
492,What do you think your friend meant?,NA,It is big relative to other ,Fri Sep 06 2019 12:11:27 GMT-0600 (Mountain Daylight Time),images/fish-parade-basic.png,12,NA,NA,NA,None,2,3I7KR83SNA1HVEN1R51IUCB7OZQ9KA,fish,margaret,NA,3KJYX6QCMAZN4LSF2NB49ZWFR58JVF,NA,0,yes,"You and your friend see another member of the group <br />(not pictured), and your friend says: <br/><b>That swordfish is big.</b>",predicative,NA,35,swordfish,Interesting study!,0,NA,NA,graduated_high_school,big,NA,A6SF30ZZJMJ1N,English,male,,NA,You and your friend see the following:,3,1567793487357,NA,NA,1.10,NA,NA,NA,basic,custom_main_text2
490,<i>What do you think Speaker A meant? </i>,NA,The Empire State Building is tall relative to other ,Fri Sep 06 2019 11:51:05 GMT-0600 (Central Standard Time),NA,12,NA,NA,NA,Fun study,2,33N1S8XHHM9UV4JSNTPZ2LH1UWF1ZF,NA,Mary,1,3HWRJOOET6QZ1DPJURV81WZGNTUSEA,NA,NA,,NA,NA,"<b> Speaker A: ""The Empire State Building is tall.""</b>",,buildings,I enjoyed the study,NA,NA,NA,,NA,comp_class_warmup,A22A52DRIIEV6K,English,female,NA,NA,In the main trials you will be asked to rephrase something a person said. The utterance will contain a word that is <i>relative</i> and your task is to figure out what it is relative to. <br /> <br /> For example: <br /><br />,1,1567792265315,1,NA,1.50,NA,NA,"buildings, scyscrapers, houses, constructions (choose one)",NA,comp_class_warmup
490,NA,tree,NA,Fri Sep 06 2019 11:51:05 GMT-0600 (Central Standard Time),NA,12,warmup/bonsai.jpg,redwood or sequoia (choose one),This is a ,Fun study,2,33N1S8XHHM9UV4JSNTPZ2LH1UWF1ZF,trees,Mary,NA,3HWRJOOET6QZ1DPJURV81WZGNTUSEA,bonsai,NA,,Please label the pictures below.,NA,NA,,NA,I enjoyed the study,NA,warmup/sequoia.png,trees,,NA,NA,A22A52DRIIEV6K,English,female,NA,trees,NA,1,1567792265315,1,This is a ,1.50,These are both,tree,NA,NA,warmup1
490,NA,tree,NA,Fri Sep 06 2019 11:51:05 GMT-0600 (Central Standard Time),NA,12,warmup/bonsai.jpg,redwood or sequoia (choose one),This is a ,Fun study,2,33N1S8XHHM9UV4JSNTPZ2LH1UWF1ZF,trees,Mary,NA,3HWRJOOET6QZ1DPJURV81WZGNTUSEA,bonsai,NA,,Please label the pictures below.,NA,NA,,NA,I enjoyed the study,NA,warmup/sequoia.png,trees,,NA,NA,A22A52DRIIEV6K,English,female,NA,trees,NA,1,1567792265315,2,This is a ,1.50,These are both,tree,NA,NA,warmup1
490,NA,tree,NA,Fri Sep 06 2019 11:51:05 GMT-0600 (Central Standard Time),NA,12,warmup/bonsai.jpg,redwood or sequoia (choose one),This is a ,Fun study,2,33N1S8XHHM9UV4JSNTPZ2LH1UWF1ZF,trees,Mary,NA,3HWRJOOET6QZ1DPJURV81WZGNTUSEA,bonsai,NA,,Please label the pictures below.,NA,NA,,NA,I enjoyed the study,NA,warmup/sequoia.png,trees,,NA,NA,A22A52DRIIEV6K,English,female,NA,trees,NA,1,1567792265315,3,This is a ,1.50,These are both,tree,NA,NA,warmup1
490,NA,tree,NA,Fri Sep 06 2019 11:51:05 GMT-0600 (Central Standard Time),NA,12,warmup/bonsai.jpg,redwood or sequoia (choose one),This is a ,Fun study,2,33N1S8XHHM9UV4JSNTPZ2LH1UWF1ZF,trees,Mary,NA,3HWRJOOET6QZ1DPJURV81WZGNTUSEA,bonsai,NA,,Please label the pictures below.,NA,NA,,NA,I enjoyed the study,NA,warmup/sequoia.png,trees,,NA,NA,A22A52DRIIEV6K,English,female,NA,trees,NA,1,1567792265315,4,This is a ,1.50,These are both,tree,NA,NA,warmup1
490,NA,redwood,NA,Fri Sep 06 2019 11:51:05 GMT-0600 (Central Standard Time),NA,12,warmup/bonsai.jpg,redwood or sequoia (choose one),This is a ,Fun study,2,33N1S8XHHM9UV4JSNTPZ2LH1UWF1ZF,trees,Mary,NA,3HWRJOOET6QZ1DPJURV81WZGNTUSEA,bonsai,NA,,Please label the pictures below.,NA,NA,,NA,I enjoyed the study,NA,warmup/sequoia.png,trees,,NA,NA,A22A52DRIIEV6K,English,female,NA,trees,NA,1,1567792265315,5,This is a ,1.50,These are both,bonsai,NA,NA,warmup1
490,NA,starfish,NA,Fri Sep 06 2019 11:51:05 GMT-0600 (Central Standard Time),NA,12,warmup/goldfish.png,swordfish,This is a ,Fun study,2,33N1S8XHHM9UV4JSNTPZ2LH1UWF1ZF,fish,Mary,NA,3HWRJOOET6QZ1DPJURV81WZGNTUSEA,goldfish,NA,,Please label the pictures below.,NA,NA,,NA,I enjoyed the study,NA,warmup/swordfish.jpg,fish,,NA,NA,A22A52DRIIEV6K,English,female,NA,fish,NA,2,1567792265315,1,This is a ,1.50,These are both,shark,NA,NA,warmup1
490,NA,swordfish,NA,Fri Sep 06 2019 11:51:05 GMT-0600 (Central Standard Time),NA,12,warmup/goldfish.png,swordfish,This is a ,Fun study,2,33N1S8XHHM9UV4JSNTPZ2LH1UWF1ZF,fish,Mary,NA,3HWRJOOET6QZ1DPJURV81WZGNTUSEA,goldfish,NA,,Please label the pictures below.,NA,NA,,NA,I enjoyed the study,NA,warmup/swordfish.jpg,fish,,NA,NA,A22A52DRIIEV6K,English,female,NA,fish,NA,2,1567792265315,2,This is a ,1.50,These are both,goldfish,NA,NA,warmup1
490,NA,woodpecker,NA,Fri Sep 06 2019 11:51:05 GMT-0600 (Central Standard Time),NA,12,warmup/eagle.jpg,hummingbird,This is a ,Fun study,2,33N1S8XHHM9UV4JSNTPZ2LH1UWF1ZF,birds,Mary,NA,3HWRJOOET6QZ1DPJURV81WZGNTUSEA,eagle,NA,,Please label the pictures below.,NA,NA,,NA,I enjoyed the study,NA,warmup/colibri.jpg,birds,,NA,NA,A22A52DRIIEV6K,English,female,NA,birds,NA,3,1567792265315,1,This is an ,1.50,These are both,eagle,NA,NA,warmup1
490,NA,hummingbird,NA,Fri Sep 06 2019 11:51:05 GMT-0600 (Central Standard Time),NA,12,warmup/eagle.jpg,hummingbird,This is a ,Fun study,2,33N1S8XHHM9UV4JSNTPZ2LH1UWF1ZF,birds,Mary,NA,3HWRJOOET6QZ1DPJURV81WZGNTUSEA,eagle,NA,,Please label the pictures below.,NA,NA,,NA,I enjoyed the study,NA,warmup/colibri.jpg,birds,,NA,NA,A22A52DRIIEV6K,English,female,NA,birds,NA,3,1567792265315,2,This is an ,1.50,These are both,eagle,NA,NA,warmup1
490,What do you think your friend meant?,NA,It is big relative to other ,Fri Sep 06 2019 11:51:05 GMT-0600 (Central Standard Time),images/tree-parade-bonsai.png,12,NA,NA,NA,Fun study,2,33N1S8XHHM9UV4JSNTPZ2LH1UWF1ZF,trees,Mary,NA,3HWRJOOET6QZ1DPJURV81WZGNTUSEA,NA,2,,"You and your friend see another member of the group <br />(not pictured), and your friend says: <br/><b>That one is big.</b>",predicative,NA,,trees,I enjoyed the study,1,NA,NA,,big,NA,A22A52DRIIEV6K,English,female,,NA,You and your friend see the following:,1,1567792265315,NA,NA,1.50,NA,NA,NA,incongr,custom_main_text1
490,What do you think your friend meant?,NA,It is big relative to other ,Fri Sep 06 2019 11:51:05 GMT-0600 (Central Standard Time),images/bird-parade-eagle.png,12,NA,NA,NA,Fun study,2,33N1S8XHHM9UV4JSNTPZ2LH1UWF1ZF,birds,Mary,NA,3HWRJOOET6QZ1DPJURV81WZGNTUSEA,NA,1,,"You and your friend see another member of the group <br />(not pictured), and your friend says: <br/><b>That eagle is big.</b>",predicative,NA,,eagles,I enjoyed the study,0,NA,NA,,big,NA,A22A52DRIIEV6K,English,female,,NA,You and your friend see the following:,2,1567792265315,NA,NA,1.50,NA,NA,NA,congr,custom_main_text1
490,What do you think your friend meant?,NA,It is big relative to other ,Fri Sep 06 2019 11:51:05 GMT-0600 (Central Standard Time),images/fish-parade-basic.png,12,NA,NA,NA,Fun study,2,33N1S8XHHM9UV4JSNTPZ2LH1UWF1ZF,fish,Mary,NA,3HWRJOOET6QZ1DPJURV81WZGNTUSEA,NA,0,,"You and your friend see another member of the group <br />(not pictured), and your friend says: <br/><b>That one is big.</b>",predicative,NA,,fish,I enjoyed the study,1,NA,NA,,big,NA,A22A52DRIIEV6K,English,female,,NA,You and your friend see the following:,3,1567792265315,NA,NA,1.50,NA,NA,NA,basic,custom_main_text1
490,NA,bulldog,NA,Fri Sep 06 2019 11:51:05 GMT-0600 (Central Standard Time),NA,12,warmup/great-dane.jpg,pug,This is a ,Fun study,2,33N1S8XHHM9UV4JSNTPZ2LH1UWF1ZF,dogs,Mary,NA,3HWRJOOET6QZ1DPJURV81WZGNTUSEA,great dane,NA,,Please label the pictures below.,NA,NA,,NA,I enjoyed the study,NA,warmup/pug.jpg,dogs,,NA,NA,A22A52DRIIEV6K,English,female,NA,dogs,NA,1,1567792265315,1,This is a ,1.50,These are both,german,NA,NA,warmup2
490,NA,pug,NA,Fri Sep 06 2019 11:51:05 GMT-0600 (Central Standard Time),NA,12,warmup/great-dane.jpg,pug,This is a ,Fun study,2,33N1S8XHHM9UV4JSNTPZ2LH1UWF1ZF,dogs,Mary,NA,3HWRJOOET6QZ1DPJURV81WZGNTUSEA,great dane,NA,,Please label the pictures below.,NA,NA,,NA,I enjoyed the study,NA,warmup/pug.jpg,dogs,,NA,NA,A22A52DRIIEV6K,English,female,NA,dogs,NA,1,1567792265315,2,This is a ,1.50,These are both,great dane,NA,NA,warmup2
490,NA,wolf,NA,Fri Sep 06 2019 11:51:05 GMT-0600 (Central Standard Time),NA,12,warmup/doberman.png,chihuahua,This is a ,Fun study,2,33N1S8XHHM9UV4JSNTPZ2LH1UWF1ZF,dogs,Mary,NA,3HWRJOOET6QZ1DPJURV81WZGNTUSEA,doberman,NA,,Please label the pictures below.,NA,NA,,NA,I enjoyed the study,NA,warmup/chihuahua.jpg,dogs,,NA,NA,A22A52DRIIEV6K,English,female,NA,dogs,NA,2,1567792265315,1,This is a ,1.50,These are both,german,NA,NA,warmup2
490,NA,chihuahua,NA,Fri Sep 06 2019 11:51:05 GMT-0600 (Central Standard Time),NA,12,warmup/doberman.png,chihuahua,This is a ,Fun study,2,33N1S8XHHM9UV4JSNTPZ2LH1UWF1ZF,dogs,Mary,NA,3HWRJOOET6QZ1DPJURV81WZGNTUSEA,doberman,NA,,Please label the pictures below.,NA,NA,,NA,I enjoyed the study,NA,warmup/chihuahua.jpg,dogs,,NA,NA,A22A52DRIIEV6K,English,female,NA,dogs,NA,2,1567792265315,2,This is a ,1.50,These are both,doberman,NA,NA,warmup2
490,NA,basil,NA,Fri Sep 06 2019 11:51:05 GMT-0600 (Central Standard Time),NA,12,warmup/sunflower.png,dandelion,This is a ,Fun study,2,33N1S8XHHM9UV4JSNTPZ2LH1UWF1ZF,flowers,Mary,NA,3HWRJOOET6QZ1DPJURV81WZGNTUSEA,sunflower,NA,,Please label the pictures below.,NA,NA,,NA,I enjoyed the study,NA,warmup/dandelion.jpg,flowers,,NA,NA,A22A52DRIIEV6K,English,female,NA,flowers,NA,3,1567792265315,1,This is a ,1.50,These are both,sunflower,NA,NA,warmup2
490,NA,dandelion,NA,Fri Sep 06 2019 11:51:05 GMT-0600 (Central Standard Time),NA,12,warmup/sunflower.png,dandelion,This is a ,Fun study,2,33N1S8XHHM9UV4JSNTPZ2LH1UWF1ZF,flowers,Mary,NA,3HWRJOOET6QZ1DPJURV81WZGNTUSEA,sunflower,NA,,Please label the pictures below.,NA,NA,,NA,I enjoyed the study,NA,warmup/dandelion.jpg,flowers,,NA,NA,A22A52DRIIEV6K,English,female,NA,flowers,NA,3,1567792265315,2,This is a ,1.50,These are both,sunflower,NA,NA,warmup2
490,What do you think your friend meant?,NA,It is small relative to other ,Fri Sep 06 2019 11:51:05 GMT-0600 (Central Standard Time),images/flower-parade-basic.png,12,NA,NA,NA,Fun study,2,33N1S8XHHM9UV4JSNTPZ2LH1UWF1ZF,flowers,Mary,NA,3HWRJOOET6QZ1DPJURV81WZGNTUSEA,NA,0,,"You and your friend see another member of the group <br />(not pictured), and your friend says: <br/><b>That one is small.</b>",predicative,NA,,flowers,I enjoyed the study,1,NA,NA,,small,NA,A22A52DRIIEV6K,English,female,,NA,You and your friend see the following:,1,1567792265315,NA,NA,1.50,NA,NA,NA,basic,custom_main_text2
490,What do you think your friend meant?,NA,It is small relative to other ,Fri Sep 06 2019 11:51:05 GMT-0600 (Central Standard Time),images/dog-parade-basic.png,12,NA,NA,NA,Fun study,2,33N1S8XHHM9UV4JSNTPZ2LH1UWF1ZF,dogs1,Mary,NA,3HWRJOOET6QZ1DPJURV81WZGNTUSEA,NA,0,,"You and your friend see another member of the group <br />(not pictured), and your friend says: <br/><b>That chihuahua is small.</b>",predicative,NA,,dogs,I enjoyed the study,0,NA,NA,,small,NA,A22A52DRIIEV6K,English,female,,NA,You and your friend see the following:,2,1567792265315,NA,NA,1.50,NA,NA,NA,basic,custom_main_text2
490,What do you think your friend meant?,NA,It is small relative to other ,Fri Sep 06 2019 11:51:05 GMT-0600 (Central Standard Time),images/dog-parade-great-dane.png,12,NA,NA,NA,Fun study,2,33N1S8XHHM9UV4JSNTPZ2LH1UWF1ZF,dogs2,Mary,NA,3HWRJOOET6QZ1DPJURV81WZGNTUSEA,NA,2,,"You and your friend see another member of the group <br />(not pictured), and your friend says: <br/><b>That great dane is small.</b>",predicative,NA,,dogs,I enjoyed the study,0,NA,NA,,small,NA,A22A52DRIIEV6K,English,female,,NA,You and your friend see the following:,3,1567792265315,NA,NA,1.50,NA,NA,NA,incongr,custom_main_text2
488,<i>What do you think Speaker A meant? </i>,NA,The Empire State Building is tall relative to other ,Fri Sep 06 2019 13:51:17 GMT-0400 (Eastern Daylight Time),NA,12,NA,NA,NA,no,1,3GKAWYFRAPHU9VXYGDBSCPGW9UAPD7,NA,jessica,1,38YMOXR4MVNOVFDD8EMBMXAOC8ZW65,NA,NA,yes,NA,NA,"<b> Speaker A: ""The Empire State Building is tall.""</b>",26,buildings,,NA,NA,NA,some_college,NA,comp_class_warmup,AMZV70TID53WY,English,male,NA,NA,In the main trials you will be asked to rephrase something a person said. The utterance will contain a word that is <i>relative</i> and your task is to figure out what it is relative to. <br /> <br /> For example: <br /><br />,1,1567792277703,1,NA,1,NA,NA,"buildings, scyscrapers, houses, constructions (choose one)",NA,comp_class_warmup
488,NA,swordfish,NA,Fri Sep 06 2019 13:51:17 GMT-0400 (Eastern Daylight Time),NA,12,warmup/goldfish.png,swordfish,This is a ,no,1,3GKAWYFRAPHU9VXYGDBSCPGW9UAPD7,fish,jessica,NA,38YMOXR4MVNOVFDD8EMBMXAOC8ZW65,goldfish,NA,yes,Please label the pictures below.,NA,NA,26,NA,,NA,warmup/swordfish.jpg,fish,some_college,NA,NA,AMZV70TID53WY,English,male,NA,fish,NA,1,1567792277703,1,This is a ,1,These are both,goldfish,NA,NA,warmup1
488,NA,dandelion,NA,Fri Sep 06 2019 13:51:17 GMT-0400 (Eastern Daylight Time),NA,12,warmup/sunflower.png,dandelion,This is a ,no,1,3GKAWYFRAPHU9VXYGDBSCPGW9UAPD7,flowers,jessica,NA,38YMOXR4MVNOVFDD8EMBMXAOC8ZW65,sunflower,NA,yes,Please label the pictures below.,NA,NA,26,NA,,NA,warmup/dandelion.jpg,flowers,some_college,NA,NA,AMZV70TID53WY,English,male,NA,flowers,NA,2,1567792277703,1,This is a ,1,These are both,sunflower,NA,NA,warmup1
488,NA,hummngbird,NA,Fri Sep 06 2019 13:51:17 GMT-0400 (Eastern Daylight Time),NA,12,warmup/eagle.jpg,hummingbird,This is a ,no,1,3GKAWYFRAPHU9VXYGDBSCPGW9UAPD7,birds,jessica,NA,38YMOXR4MVNOVFDD8EMBMXAOC8ZW65,eagle,NA,yes,Please label the pictures below.,NA,NA,26,NA,,NA,warmup/colibri.jpg,birds,some_college,NA,NA,AMZV70TID53WY,English,male,NA,birds,NA,3,1567792277703,1,This is an ,1,These are both,eagle,NA,NA,warmup1
488,NA,hummingbird,NA,Fri Sep 06 2019 13:51:17 GMT-0400 (Eastern Daylight Time),NA,12,warmup/eagle.jpg,hummingbird,This is a ,no,1,3GKAWYFRAPHU9VXYGDBSCPGW9UAPD7,birds,jessica,NA,38YMOXR4MVNOVFDD8EMBMXAOC8ZW65,eagle,NA,yes,Please label the pictures below.,NA,NA,26,NA,,NA,warmup/colibri.jpg,birds,some_college,NA,NA,AMZV70TID53WY,English,male,NA,birds,NA,3,1567792277703,2,This is an ,1,These are both,eagle,NA,NA,warmup1
488,What do you think your friend meant?,NA,It is small relative to other ,Fri Sep 06 2019 13:51:17 GMT-0400 (Eastern Daylight Time),images/flower-parade-dandelion.png,12,NA,NA,NA,no,1,3GKAWYFRAPHU9VXYGDBSCPGW9UAPD7,flowers,jessica,NA,38YMOXR4MVNOVFDD8EMBMXAOC8ZW65,NA,1,yes,"You and your friend see another member of the group <br />(not pictured), and your friend says: <br/><b>That one is small.</b>",predicative,NA,26,dandelions,,1,NA,NA,some_college,small,NA,AMZV70TID53WY,English,male,,NA,You and your friend see the following:,1,1567792277703,NA,NA,1,NA,NA,NA,congr,custom_main_text1
488,What do you think your friend meant?,NA,It is small relative to other ,Fri Sep 06 2019 13:51:17 GMT-0400 (Eastern Daylight Time),images/bird-parade-eagle.png,12,NA,NA,NA,no,1,3GKAWYFRAPHU9VXYGDBSCPGW9UAPD7,birds,jessica,NA,38YMOXR4MVNOVFDD8EMBMXAOC8ZW65,NA,2,yes,"You and your friend see another member of the group <br />(not pictured), and your friend says: <br/><b>That eagle is small.</b>",predicative,NA,26,eagles,,0,NA,NA,some_college,small,NA,AMZV70TID53WY,English,male,,NA,You and your friend see the following:,2,1567792277703,NA,NA,1,NA,NA,NA,incongr,custom_main_text1
488,What do you think your friend meant?,NA,It is big relative to other ,Fri Sep 06 2019 13:51:17 GMT-0400 (Eastern Daylight Time),images/fish-parade-goldfish.png,12,NA,NA,NA,no,1,3GKAWYFRAPHU9VXYGDBSCPGW9UAPD7,fish,jessica,NA,38YMOXR4MVNOVFDD8EMBMXAOC8ZW65,NA,2,yes,"You and your friend see another member of the group <br />(not pictured), and your friend says: <br/><b>That goldfish is big.</b>",predicative,NA,26,fish,,0,NA,NA,some_college,big,NA,AMZV70TID53WY,English,male,,NA,You and your friend see the following:,3,1567792277703,NA,NA,1,NA,NA,NA,incongr,custom_main_text1
488,NA,pug,NA,Fri Sep 06 2019 13:51:17 GMT-0400 (Eastern Daylight Time),NA,12,warmup/great-dane.jpg,pug,This is a ,no,1,3GKAWYFRAPHU9VXYGDBSCPGW9UAPD7,dogs,jessica,NA,38YMOXR4MVNOVFDD8EMBMXAOC8ZW65,great dane,NA,yes,Please label the pictures below.,NA,NA,26,NA,,NA,warmup/pug.jpg,dogs,some_college,NA,NA,AMZV70TID53WY,English,male,NA,dogs,NA,1,1567792277703,1,This is a ,1,These are both,great dane,NA,NA,warmup2
488,NA,tree,NA,Fri Sep 06 2019 13:51:17 GMT-0400 (Eastern Daylight Time),NA,12,warmup/bonsai.jpg,redwood or sequoia (choose one),This is a ,no,1,3GKAWYFRAPHU9VXYGDBSCPGW9UAPD7,trees,jessica,NA,38YMOXR4MVNOVFDD8EMBMXAOC8ZW65,bonsai,NA,yes,Please label the pictures below.,NA,NA,26,NA,,NA,warmup/sequoia.png,trees,some_college,NA,NA,AMZV70TID53WY,English,male,NA,trees,NA,2,1567792277703,1,This is a ,1,These are both,bonsai,NA,NA,warmup2
488,NA,redwood,NA,Fri Sep 06 2019 13:51:17 GMT-0400 (Eastern Daylight Time),NA,12,warmup/bonsai.jpg,redwood or sequoia (choose one),This is a ,no,1,3GKAWYFRAPHU9VXYGDBSCPGW9UAPD7,trees,jessica,NA,38YMOXR4MVNOVFDD8EMBMXAOC8ZW65,bonsai,NA,yes,Please label the pictures below.,NA,NA,26,NA,,NA,warmup/sequoia.png,trees,some_college,NA,NA,AMZV70TID53WY,English,male,NA,trees,NA,2,1567792277703,2,This is a ,1,These are both,bonsai,NA,NA,warmup2
488,NA,chihuaha,NA,Fri Sep 06 2019 13:51:17 GMT-0400 (Eastern Daylight Time),NA,12,warmup/doberman.png,chihuahua,This is a ,no,1,3GKAWYFRAPHU9VXYGDBSCPGW9UAPD7,dogs,jessica,NA,38YMOXR4MVNOVFDD8EMBMXAOC8ZW65,doberman,NA,yes,Please label the pictures below.,NA,NA,26,NA,,NA,warmup/chihuahua.jpg,dogs,some_college,NA,NA,AMZV70TID53WY,English,male,NA,dogs,NA,3,1567792277703,1,This is a ,1,These are both,dog,NA,NA,warmup2
488,NA,chihuahua,NA,Fri Sep 06 2019 13:51:17 GMT-0400 (Eastern Daylight Time),NA,12,warmup/doberman.png,chihuahua,This is a ,no,1,3GKAWYFRAPHU9VXYGDBSCPGW9UAPD7,dogs,jessica,NA,38YMOXR4MVNOVFDD8EMBMXAOC8ZW65,doberman,NA,yes,Please label the pictures below.,NA,NA,26,NA,,NA,warmup/chihuahua.jpg,dogs,some_college,NA,NA,AMZV70TID53WY,English,male,NA,dogs,NA,3,1567792277703,2,This is a ,1,These are both,doberman,NA,NA,warmup2
488,What do you think your friend meant?,NA,It is big relative to other ,Fri Sep 06 2019 13:51:17 GMT-0400 (Eastern Daylight Time),images/dog-parade-basic.png,12,NA,NA,NA,no,1,3GKAWYFRAPHU9VXYGDBSCPGW9UAPD7,dogs1,jessica,NA,38YMOXR4MVNOVFDD8EMBMXAOC8ZW65,NA,0,yes,"You and your friend see another member of the group <br />(not pictured), and your friend says: <br/><b>That one is big.</b>",predicative,NA,26,dogs,,1,NA,NA,some_college,big,NA,AMZV70TID53WY,English,male,,NA,You and your friend see the following:,1,1567792277703,NA,NA,1,NA,NA,NA,basic,custom_main_text2
488,What do you think your friend meant?,NA,It is small relative to other ,Fri Sep 06 2019 13:51:17 GMT-0400 (Eastern Daylight Time),images/dog-parade-basic2.png,12,NA,NA,NA,no,1,3GKAWYFRAPHU9VXYGDBSCPGW9UAPD7,dogs2,jessica,NA,38YMOXR4MVNOVFDD8EMBMXAOC8ZW65,NA,0,yes,"You and your friend see another member of the group <br />(not pictured), and your friend says: <br/><b>That one is small.</b>",predicative,NA,26,dogs,,1,NA,NA,some_college,small,NA,AMZV70TID53WY,English,male,,NA,You and your friend see the following:,2,1567792277703,NA,NA,1,NA,NA,NA,basic,custom_main_text2
488,What do you think your friend meant?,NA,It is big relative to other ,Fri Sep 06 2019 13:51:17 GMT-0400 (Eastern Daylight Time),images/tree-parade-basic.png,12,NA,NA,NA,no,1,3GKAWYFRAPHU9VXYGDBSCPGW9UAPD7,trees,jessica,NA,38YMOXR4MVNOVFDD8EMBMXAOC8ZW65,NA,0,yes,"You and your friend see another member of the group <br />(not pictured), and your friend says: <br/><b>That redwood is big.</b>",predicative,NA,26,redwoods,,0,NA,NA,some_college,big,NA,AMZV70TID53WY,English,male,,NA,You and your friend see the following:,3,1567792277703,NA,NA,1,NA,NA,NA,basic,custom_main_text2
485,<i>What do you think Speaker A meant? </i>,NA,The Empire State Building is tall relative to other ,Fri Sep 06 2019 12:35:06 GMT-0500 (Central Daylight Time),NA,12,NA,NA,NA,no,1,3I7KR83SNA1HVEN1R51IUCB7OZQ9KA,NA,patricia,1,3QJOXOW4XKFW3ICEAUZMPN0AV40EM8,NA,NA,yes,NA,NA,"<b> Speaker A: ""The Empire State Building is tall.""</b>",36,buildings,,NA,NA,NA,graduated_college,NA,comp_class_warmup,A244R34WM3IZO8,English,male,NA,NA,In the main trials you will be asked to rephrase something a person said. The utterance will contain a word that is <i>relative</i> and your task is to figure out what it is relative to. <br /> <br /> For example: <br /><br />,1,1567791306173,1,NA,1.00,NA,NA,"buildings, scyscrapers, houses, constructions (choose one)",NA,comp_class_warmup
485,NA,dandelion,NA,Fri Sep 06 2019 12:35:06 GMT-0500 (Central Daylight Time),NA,12,warmup/sunflower.png,dandelion,This is a ,no,1,3I7KR83SNA1HVEN1R51IUCB7OZQ9KA,flowers,patricia,NA,3QJOXOW4XKFW3ICEAUZMPN0AV40EM8,sunflower,NA,yes,Please label the pictures below.,NA,NA,36,NA,,NA,warmup/dandelion.jpg,plants,graduated_college,NA,NA,A244R34WM3IZO8,English,male,NA,flowers,NA,1,1567791306173,1,This is a ,1.00,These are both,sunflower,NA,NA,warmup1
485,NA,dandelion,NA,Fri Sep 06 2019 12:35:06 GMT-0500 (Central Daylight Time),NA,12,warmup/sunflower.png,dandelion,This is a ,no,1,3I7KR83SNA1HVEN1R51IUCB7OZQ9KA,flowers,patricia,NA,3QJOXOW4XKFW3ICEAUZMPN0AV40EM8,sunflower,NA,yes,Please label the pictures below.,NA,NA,36,NA,,NA,warmup/dandelion.jpg,plants,graduated_college,NA,NA,A244R34WM3IZO8,English,male,NA,flowers,NA,1,1567791306173,2,This is a ,1.00,These are both,sunflower,NA,NA,warmup1
485,NA,dandelion,NA,Fri Sep 06 2019 12:35:06 GMT-0500 (Central Daylight Time),NA,12,warmup/sunflower.png,dandelion,This is a ,no,1,3I7KR83SNA1HVEN1R51IUCB7OZQ9KA,flowers,patricia,NA,3QJOXOW4XKFW3ICEAUZMPN0AV40EM8,sunflower,NA,yes,Please label the pictures below.,NA,NA,36,NA,,NA,warmup/dandelion.jpg,plants,graduated_college,NA,NA,A244R34WM3IZO8,English,male,NA,flowers,NA,1,1567791306173,3,This is a ,1.00,These are both,sunflower,NA,NA,warmup1
485,NA,dandelion,NA,Fri Sep 06 2019 12:35:06 GMT-0500 (Central Daylight Time),NA,12,warmup/sunflower.png,dandelion,This is a ,no,1,3I7KR83SNA1HVEN1R51IUCB7OZQ9KA,flowers,patricia,NA,3QJOXOW4XKFW3ICEAUZMPN0AV40EM8,sunflower,NA,yes,Please label the pictures below.,NA,NA,36,NA,,NA,warmup/dandelion.jpg,plants,graduated_college,NA,NA,A244R34WM3IZO8,English,male,NA,flowers,NA,1,1567791306173,4,This is a ,1.00,These are both,sunflower,NA,NA,warmup1
485,NA,dandelion,NA,Fri Sep 06 2019 12:35:06 GMT-0500 (Central Daylight Time),NA,12,warmup/sunflower.png,dandelion,This is a ,no,1,3I7KR83SNA1HVEN1R51IUCB7OZQ9KA,flowers,patricia,NA,3QJOXOW4XKFW3ICEAUZMPN0AV40EM8,sunflower,NA,yes,Please label the pictures below.,NA,NA,36,NA,,NA,warmup/dandelion.jpg,plants,graduated_college,NA,NA,A244R34WM3IZO8,English,male,NA,flowers,NA,1,1567791306173,5,This is a ,1.00,These are both,sunflower,NA,NA,warmup1
485,NA,dandelion,NA,Fri Sep 06 2019 12:35:06 GMT-0500 (Central Daylight Time),NA,12,warmup/sunflower.png,dandelion,This is a ,no,1,3I7KR83SNA1HVEN1R51IUCB7OZQ9KA,flowers,patricia,NA,3QJOXOW4XKFW3ICEAUZMPN0AV40EM8,sunflower,NA,yes,Please label the pictures below.,NA,NA,36,NA,,NA,warmup/dandelion.jpg,plants,graduated_college,NA,NA,A244R34WM3IZO8,English,male,NA,flowers,NA,1,1567791306173,6,This is a ,1.00,These are both,sunflower,NA,NA,warmup1
485,NA,dandelion,NA,Fri Sep 06 2019 12:35:06 GMT-0500 (Central Daylight Time),NA,12,warmup/sunflower.png,dandelion,This is a ,no,1,3I7KR83SNA1HVEN1R51IUCB7OZQ9KA,flowers,patricia,NA,3QJOXOW4XKFW3ICEAUZMPN0AV40EM8,sunflower,NA,yes,Please label the pictures below.,NA,NA,36,NA,,NA,warmup/dandelion.jpg,plants,graduated_college,NA,NA,A244R34WM3IZO8,English,male,NA,flowers,NA,1,1567791306173,7,This is a ,1.00,These are both,sunflower,NA,NA,warmup1
485,NA,dandelion,NA,Fri Sep 06 2019 12:35:06 GMT-0500 (Central Daylight Time),NA,12,warmup/sunflower.png,dandelion,This is a ,no,1,3I7KR83SNA1HVEN1R51IUCB7OZQ9KA,flowers,patricia,NA,3QJOXOW4XKFW3ICEAUZMPN0AV40EM8,sunflower,NA,yes,Please label the pictures below.,NA,NA,36,NA,,NA,warmup/dandelion.jpg,plants,graduated_college,NA,NA,A244R34WM3IZO8,English,male,NA,flowers,NA,1,1567791306173,8,This is a ,1.00,These are both,sunflower,NA,NA,warmup1
485,NA,dandelion,NA,Fri Sep 06 2019 12:35:06 GMT-0500 (Central Daylight Time),NA,12,warmup/sunflower.png,dandelion,This is a ,no,1,3I7KR83SNA1HVEN1R51IUCB7OZQ9KA,flowers,patricia,NA,3QJOXOW4XKFW3ICEAUZMPN0AV40EM8,sunflower,NA,yes,Please label the pictures below.,NA,NA,36,NA,,NA,warmup/dandelion.jpg,flowers,graduated_college,NA,NA,A244R34WM3IZO8,English,male,NA,flowers,NA,1,1567791306173,9,This is a ,1.00,These are both,sunflower,NA,NA,warmup1
485,NA,tree,NA,Fri Sep 06 2019 12:35:06 GMT-0500 (Central Daylight Time),NA,12,warmup/bonsai.jpg,redwood or sequoia (choose one),This is a ,no,1,3I7KR83SNA1HVEN1R51IUCB7OZQ9KA,trees,patricia,NA,3QJOXOW4XKFW3ICEAUZMPN0AV40EM8,bonsai,NA,yes,Please label the pictures below.,NA,NA,36,NA,,NA,warmup/sequoia.png,trees,graduated_college,NA,NA,A244R34WM3IZO8,English,male,NA,trees,NA,2,1567791306173,1,This is a ,1.00,These are both,bonzai tree,NA,NA,warmup1
485,NA,redwood,NA,Fri Sep 06 2019 12:35:06 GMT-0500 (Central Daylight Time),NA,12,warmup/bonsai.jpg,redwood or sequoia (choose one),This is a ,no,1,3I7KR83SNA1HVEN1R51IUCB7OZQ9KA,trees,patricia,NA,3QJOXOW4XKFW3ICEAUZMPN0AV40EM8,bonsai,NA,yes,Please label the pictures below.,NA,NA,36,NA,,NA,warmup/sequoia.png,trees,graduated_college,NA,NA,A244R34WM3IZO8,English,male,NA,trees,NA,2,1567791306173,2,This is a ,1.00,These are both,bonsai,NA,NA,warmup1
485,NA,pug,NA,Fri Sep 06 2019 12:35:06 GMT-0500 (Central Daylight Time),NA,12,warmup/great-dane.jpg,pug,This is a ,no,1,3I7KR83SNA1HVEN1R51IUCB7OZQ9KA,dogs,patricia,NA,3QJOXOW4XKFW3ICEAUZMPN0AV40EM8,great dane,NA,yes,Please label the pictures below.,NA,NA,36,NA,,NA,warmup/pug.jpg,dogs,graduated_college,NA,NA,A244R34WM3IZO8,English,male,NA,dogs,NA,3,1567791306173,1,This is a ,1.00,These are both,hound,NA,NA,warmup1
485,NA,pug,NA,Fri Sep 06 2019 12:35:06 GMT-0500 (Central Daylight Time),NA,12,warmup/great-dane.jpg,pug,This is a ,no,1,3I7KR83SNA1HVEN1R51IUCB7OZQ9KA,dogs,patricia,NA,3QJOXOW4XKFW3ICEAUZMPN0AV40EM8,great dane,NA,yes,Please label the pictures below.,NA,NA,36,NA,,NA,warmup/pug.jpg,dogs,graduated_college,NA,NA,A244R34WM3IZO8,English,male,NA,dogs,NA,3,1567791306173,2,This is a ,1.00,These are both,great dane,NA,NA,warmup1
485,What do you think your friend meant?,NA,It is small relative to other ,Fri Sep 06 2019 12:35:06 GMT-0500 (Central Daylight Time),images/tree-parade-basic.png,12,NA,NA,NA,no,1,3I7KR83SNA1HVEN1R51IUCB7OZQ9KA,trees,patricia,NA,3QJOXOW4XKFW3ICEAUZMPN0AV40EM8,NA,0,yes,"You and your friend see another member of the group <br />(not pictured), and your friend says: <br/><b>That one is small.</b>",predicative,NA,36,trees,,1,NA,NA,graduated_college,small,NA,A244R34WM3IZO8,English,male,,NA,You and your friend see the following:,1,1567791306173,NA,NA,1.00,NA,NA,NA,basic,custom_main_text1
485,What do you think your friend meant?,NA,It is big relative to other ,Fri Sep 06 2019 12:35:06 GMT-0500 (Central Daylight Time),images/dog-parade-basic2.png,12,NA,NA,NA,no,1,3I7KR83SNA1HVEN1R51IUCB7OZQ9KA,dogs2,patricia,NA,3QJOXOW4XKFW3ICEAUZMPN0AV40EM8,NA,0,yes,"You and your friend see another member of the group <br />(not pictured), and your friend says: <br/><b>That great dane is big.</b>",predicative,NA,36,dogs,,0,NA,NA,graduated_college,big,NA,A244R34WM3IZO8,English,male,,NA,You and your friend see the following:,2,1567791306173,NA,NA,1.00,NA,NA,NA,basic,custom_main_text1
485,What do you think your friend meant?,NA,It is big relative to other ,Fri Sep 06 2019 12:35:06 GMT-0500 (Central Daylight Time),images/flower-parade-sunflower.png,12,NA,NA,NA,no,1,3I7KR83SNA1HVEN1R51IUCB7OZQ9KA,flowers,patricia,NA,3QJOXOW4XKFW3ICEAUZMPN0AV40EM8,NA,1,yes,"You and your friend see another member of the group <br />(not pictured), and your friend says: <br/><b>That sunflower is big.</b>",predicative,NA,36,flowers,,0,NA,NA,graduated_college,big,NA,A244R34WM3IZO8,English,male,,NA,You and your friend see the following:,3,1567791306173,NA,NA,1.00,NA,NA,NA,congr,custom_main_text1
485,NA,swordfish,NA,Fri Sep 06 2019 12:35:06 GMT-0500 (Central Daylight Time),NA,12,warmup/goldfish.png,swordfish,This is a ,no,1,3I7KR83SNA1HVEN1R51IUCB7OZQ9KA,fish,patricia,NA,3QJOXOW4XKFW3ICEAUZMPN0AV40EM8,goldfish,NA,yes,Please label the pictures below.,NA,NA,36,NA,,NA,warmup/swordfish.jpg,fish,graduated_college,NA,NA,A244R34WM3IZO8,English,male,NA,fish,NA,1,1567791306173,1,This is a ,1.00,These are both,goldfish,NA,NA,warmup2
485,NA,chiauwawa,NA,Fri Sep 06 2019 12:35:06 GMT-0500 (Central Daylight Time),NA,12,warmup/doberman.png,chihuahua,This is a ,no,1,3I7KR83SNA1HVEN1R51IUCB7OZQ9KA,dogs,patricia,NA,3QJOXOW4XKFW3ICEAUZMPN0AV40EM8,doberman,NA,yes,Please label the pictures below.,NA,NA,36,NA,,NA,warmup/chihuahua.jpg,dogs,graduated_college,NA,NA,A244R34WM3IZO8,English,male,NA,dogs,NA,2,1567791306173,1,This is a ,1.00,These are both,great dane,NA,NA,warmup2
485,NA,chihuahua,NA,Fri Sep 06 2019 12:35:06 GMT-0500 (Central Daylight Time),NA,12,warmup/doberman.png,chihuahua,This is a ,no,1,3I7KR83SNA1HVEN1R51IUCB7OZQ9KA,dogs,patricia,NA,3QJOXOW4XKFW3ICEAUZMPN0AV40EM8,doberman,NA,yes,Please label the pictures below.,NA,NA,36,NA,,NA,warmup/chihuahua.jpg,dogs,graduated_college,NA,NA,A244R34WM3IZO8,English,male,NA,dogs,NA,2,1567791306173,2,This is a ,1.00,These are both,doberman,NA,NA,warmup2
485,NA,humming bird,NA,Fri Sep 06 2019 12:35:06 GMT-0500 (Central Daylight Time),NA,12,warmup/eagle.jpg,hummingbird,This is a ,no,1,3I7KR83SNA1HVEN1R51IUCB7OZQ9KA,birds,patricia,NA,3QJOXOW4XKFW3ICEAUZMPN0AV40EM8,eagle,NA,yes,Please label the pictures below.,NA,NA,36,NA,,NA,warmup/colibri.jpg,birds,graduated_college,NA,NA,A244R34WM3IZO8,English,male,NA,birds,NA,3,1567791306173,1,This is an ,1.00,These are both,bald eagle,NA,NA,warmup2
485,NA,hummingbird,NA,Fri Sep 06 2019 12:35:06 GMT-0500 (Central Daylight Time),NA,12,warmup/eagle.jpg,hummingbird,This is a ,no,1,3I7KR83SNA1HVEN1R51IUCB7OZQ9KA,birds,patricia,NA,3QJOXOW4XKFW3ICEAUZMPN0AV40EM8,eagle,NA,yes,Please label the pictures below.,NA,NA,36,NA,,NA,warmup/colibri.jpg,birds,graduated_college,NA,NA,A244R34WM3IZO8,English,male,NA,birds,NA,3,1567791306173,2,This is an ,1.00,These are both,eagle,NA,NA,warmup2
485,What do you think your friend meant?,NA,It is small relative to other ,Fri Sep 06 2019 12:35:06 GMT-0500 (Central Daylight Time),images/fish-parade-basic.png,12,NA,NA,NA,no,1,3I7KR83SNA1HVEN1R51IUCB7OZQ9KA,fish,patricia,NA,3QJOXOW4XKFW3ICEAUZMPN0AV40EM8,NA,0,yes,"You and your friend see another member of the group <br />(not pictured), and your friend says: <br/><b>That one is small.</b>",predicative,NA,36,fish,,1,NA,NA,graduated_college,small,NA,A244R34WM3IZO8,English,male,,NA,You and your friend see the following:,1,1567791306173,NA,NA,1.00,NA,NA,NA,basic,custom_main_text2
485,What do you think your friend meant?,NA,It is small relative to other ,Fri Sep 06 2019 12:35:06 GMT-0500 (Central Daylight Time),images/dog-parade-doberman.png,12,NA,NA,NA,no,1,3I7KR83SNA1HVEN1R51IUCB7OZQ9KA,dogs1,patricia,NA,3QJOXOW4XKFW3ICEAUZMPN0AV40EM8,NA,2,yes,"You and your friend see another member of the group <br />(not pictured), and your friend says: <br/><b>That doberman is small.</b>",predicative,NA,36,doberman,,0,NA,NA,graduated_college,small,NA,A244R34WM3IZO8,English,male,,NA,You and your friend see the following:,2,1567791306173,NA,NA,1.00,NA,NA,NA,incongr,custom_main_text2
485,What do you think your friend meant?,NA,It is small relative to other ,Fri Sep 06 2019 12:35:06 GMT-0500 (Central Daylight Time),images/bird-parade-hummingbird.png,12,NA,NA,NA,no,1,3I7KR83SNA1HVEN1R51IUCB7OZQ9KA,birds,patricia,NA,3QJOXOW4XKFW3ICEAUZMPN0AV40EM8,NA,1,yes,"You and your friend see another member of the group <br />(not pictured), and your friend says: <br/><b>That one is small.</b>",predicative,NA,36,hummingbirds,,1,NA,NA,graduated_college,small,NA,A244R34WM3IZO8,English,male,,NA,You and your friend see the following:,3,1567791306173,NA,NA,1.00,NA,NA,NA,congr,custom_main_text2
483,<i>What do you think Speaker A meant? </i>,NA,The Empire State Building is tall relative to other ,Fri Sep 06 2019 13:45:09 GMT-0400 (Eastern Daylight Time),NA,12,NA,NA,NA,no,1,3I7KR83SNA1HVEN1R51IUCB7OZQ9KA,NA,barbara,1,3SLE99ER0O1YVMZDFSNQWHQY7BFBZW,NA,NA,yes,NA,NA,"<b> Speaker A: ""The Empire State Building is tall.""</b>",37,buildings,,NA,NA,NA,graduated_college,NA,comp_class_warmup,A3BHRFFG75X3GO,English,male,NA,NA,In the main trials you will be asked to rephrase something a person said. The utterance will contain a word that is <i>relative</i> and your task is to figure out what it is relative to. <br /> <br /> For example: <br /><br />,1,1567791909766,1,NA,1.00,NA,NA,"buildings, scyscrapers, houses, constructions (choose one)",NA,comp_class_warmup
483,NA,chihuahua,NA,Fri Sep 06 2019 13:45:09 GMT-0400 (Eastern Daylight Time),NA,12,warmup/doberman.png,chihuahua,This is a ,no,1,3I7KR83SNA1HVEN1R51IUCB7OZQ9KA,dogs,barbara,NA,3SLE99ER0O1YVMZDFSNQWHQY7BFBZW,doberman,NA,yes,Please label the pictures below.,NA,NA,37,NA,,NA,warmup/chihuahua.jpg,dogs,graduated_college,NA,NA,A3BHRFFG75X3GO,English,male,NA,dogs,NA,1,1567791909766,1,This is a ,1.00,These are both,great dane,NA,NA,warmup1
483,NA,chihuahua,NA,Fri Sep 06 2019 13:45:09 GMT-0400 (Eastern Daylight Time),NA,12,warmup/doberman.png,chihuahua,This is a ,no,1,3I7KR83SNA1HVEN1R51IUCB7OZQ9KA,dogs,barbara,NA,3SLE99ER0O1YVMZDFSNQWHQY7BFBZW,doberman,NA,yes,Please label the pictures below.,NA,NA,37,NA,,NA,warmup/chihuahua.jpg,dogs,graduated_college,NA,NA,A3BHRFFG75X3GO,English,male,NA,dogs,NA,1,1567791909766,2,This is a ,1.00,These are both,doberman,NA,NA,warmup1
483,NA,hummingbird,NA,Fri Sep 06 2019 13:45:09 GMT-0400 (Eastern Daylight Time),NA,12,warmup/eagle.jpg,hummingbird,This is a ,no,1,3I7KR83SNA1HVEN1R51IUCB7OZQ9KA,birds,barbara,NA,3SLE99ER0O1YVMZDFSNQWHQY7BFBZW,eagle,NA,yes,Please label the pictures below.,NA,NA,37,NA,,NA,warmup/colibri.jpg,birds,graduated_college,NA,NA,A3BHRFFG75X3GO,English,male,NA,birds,NA,2,1567791909766,1,This is an ,1.00,These are both,eagle,NA,NA,warmup1
483,NA,redwood,NA,Fri Sep 06 2019 13:45:09 GMT-0400 (Eastern Daylight Time),NA,12,warmup/bonsai.jpg,redwood or sequoia (choose one),This is a ,no,1,3I7KR83SNA1HVEN1R51IUCB7OZQ9KA,trees,barbara,NA,3SLE99ER0O1YVMZDFSNQWHQY7BFBZW,bonsai,NA,yes,Please label the pictures below.,NA,NA,37,NA,,NA,warmup/sequoia.png,trees,graduated_college,NA,NA,A3BHRFFG75X3GO,English,male,NA,trees,NA,3,1567791909766,1,This is a ,1.00,These are both,bonsai,NA,NA,warmup1
483,What do you think your friend meant?,NA,It is big relative to other ,Fri Sep 06 2019 13:45:09 GMT-0400 (Eastern Daylight Time),images/tree-parade-bonsai.png,12,NA,NA,NA,no,1,3I7KR83SNA1HVEN1R51IUCB7OZQ9KA,trees,barbara,NA,3SLE99ER0O1YVMZDFSNQWHQY7BFBZW,NA,2,yes,"You and your friend see another member of the group <br />(not pictured), and your friend says: <br/><b>That one is big.</b>",predicative,NA,37,bonsai,,1,NA,NA,graduated_college,big,NA,A3BHRFFG75X3GO,English,male,,NA,You and your friend see the following:,1,1567791909766,NA,NA,1.00,NA,NA,NA,incongr,custom_main_text1
483,What do you think your friend meant?,NA,It is big relative to other ,Fri Sep 06 2019 13:45:09 GMT-0400 (Eastern Daylight Time),images/dog-parade-doberman.png,12,NA,NA,NA,no,1,3I7KR83SNA1HVEN1R51IUCB7OZQ9KA,dogs1,barbara,NA,3SLE99ER0O1YVMZDFSNQWHQY7BFBZW,NA,1,yes,"You and your friend see another member of the group <br />(not pictured), and your friend says: <br/><b>That one is big.</b>",predicative,NA,37,doberman,,1,NA,NA,graduated_college,big,NA,A3BHRFFG75X3GO,English,male,,NA,You and your friend see the following:,2,1567791909766,NA,NA,1.00,NA,NA,NA,congr,custom_main_text1
483,What do you think your friend meant?,NA,It is big relative to other ,Fri Sep 06 2019 13:45:09 GMT-0400 (Eastern Daylight Time),images/bird-parade-hummingbird.png,12,NA,NA,NA,no,1,3I7KR83SNA1HVEN1R51IUCB7OZQ9KA,birds,barbara,NA,3SLE99ER0O1YVMZDFSNQWHQY7BFBZW,NA,2,yes,"You and your friend see another member of the group <br />(not pictured), and your friend says: <br/><b>That hummingbird is big.</b>",predicative,NA,37,hummingbirds,,0,NA,NA,graduated_college,big,NA,A3BHRFFG75X3GO,English,male,,NA,You and your friend see the following:,3,1567791909766,NA,NA,1.00,NA,NA,NA,incongr,custom_main_text1
483,NA,dandelion,NA,Fri Sep 06 2019 13:45:09 GMT-0400 (Eastern Daylight Time),NA,12,warmup/sunflower.png,dandelion,This is a ,no,1,3I7KR83SNA1HVEN1R51IUCB7OZQ9KA,flowers,barbara,NA,3SLE99ER0O1YVMZDFSNQWHQY7BFBZW,sunflower,NA,yes,Please label the pictures below.,NA,NA,37,NA,,NA,warmup/dandelion.jpg,flowers,graduated_college,NA,NA,A3BHRFFG75X3GO,English,male,NA,flowers,NA,1,1567791909766,1,This is a ,1.00,These are both,sunflower,NA,NA,warmup2
483,NA,bulldog,NA,Fri Sep 06 2019 13:45:09 GMT-0400 (Eastern Daylight Time),NA,12,warmup/great-dane.jpg,pug,This is a ,no,1,3I7KR83SNA1HVEN1R51IUCB7OZQ9KA,dogs,barbara,NA,3SLE99ER0O1YVMZDFSNQWHQY7BFBZW,great dane,NA,yes,Please label the pictures below.,NA,NA,37,NA,,NA,warmup/pug.jpg,dogs,graduated_college,NA,NA,A3BHRFFG75X3GO,English,male,NA,dogs,NA,2,1567791909766,1,This is a ,1.00,These are both,great dane,NA,NA,warmup2
483,NA,pug,NA,Fri Sep 06 2019 13:45:09 GMT-0400 (Eastern Daylight Time),NA,12,warmup/great-dane.jpg,pug,This is a ,no,1,3I7KR83SNA1HVEN1R51IUCB7OZQ9KA,dogs,barbara,NA,3SLE99ER0O1YVMZDFSNQWHQY7BFBZW,great dane,NA,yes,Please label the pictures below.,NA,NA,37,NA,,NA,warmup/pug.jpg,dogs,graduated_college,NA,NA,A3BHRFFG75X3GO,English,male,NA,dogs,NA,2,1567791909766,2,This is a ,1.00,These are both,great dane,NA,NA,warmup2
483,NA,swordfish,NA,Fri Sep 06 2019 13:45:09 GMT-0400 (Eastern Daylight Time),NA,12,warmup/goldfish.png,swordfish,This is a ,no,1,3I7KR83SNA1HVEN1R51IUCB7OZQ9KA,fish,barbara,NA,3SLE99ER0O1YVMZDFSNQWHQY7BFBZW,goldfish,NA,yes,Please label the pictures below.,NA,NA,37,NA,,NA,warmup/swordfish.jpg,fish,graduated_college,NA,NA,A3BHRFFG75X3GO,English,male,NA,fish,NA,3,1567791909766,1,This is a ,1.00,These are both,goldfish,NA,NA,warmup2
483,What do you think your friend meant?,NA,It is big relative to other ,Fri Sep 06 2019 13:45:09 GMT-0400 (Eastern Daylight Time),images/dog-parade-basic2.png,12,NA,NA,NA,no,1,3I7KR83SNA1HVEN1R51IUCB7OZQ9KA,dogs2,barbara,NA,3SLE99ER0O1YVMZDFSNQWHQY7BFBZW,NA,0,yes,"You and your friend see another member of the group <br />(not pictured), and your friend says: <br/><b>That great dane is big.</b>",predicative,NA,37,dogs,,0,NA,NA,graduated_college,big,NA,A3BHRFFG75X3GO,English,male,,NA,You and your friend see the following:,1,1567791909766,NA,NA,1.00,NA,NA,NA,basic,custom_main_text2
483,What do you think your friend meant?,NA,It is big relative to other ,Fri Sep 06 2019 13:45:09 GMT-0400 (Eastern Daylight Time),images/fish-parade-basic.png,12,NA,NA,NA,no,1,3I7KR83SNA1HVEN1R51IUCB7OZQ9KA,fish,barbara,NA,3SLE99ER0O1YVMZDFSNQWHQY7BFBZW,NA,0,yes,"You and your friend see another member of the group <br />(not pictured), and your friend says: <br/><b>That swordfish is big.</b>",predicative,NA,37,swordfish,,0,NA,NA,graduated_college,big,NA,A3BHRFFG75X3GO,English,male,,NA,You and your friend see the following:,2,1567791909766,NA,NA,1.00,NA,NA,NA,basic,custom_main_text2
483,What do you think your friend meant?,NA,It is small relative to other ,Fri Sep 06 2019 13:45:09 GMT-0400 (Eastern Daylight Time),images/flower-parade-basic.png,12,NA,NA,NA,no,1,3I7KR83SNA1HVEN1R51IUCB7OZQ9KA,flowers,barbara,NA,3SLE99ER0O1YVMZDFSNQWHQY7BFBZW,NA,0,yes,"You and your friend see another member of the group <br />(not pictured), and your friend says: <br/><b>That one is small.</b>",predicative,NA,37,flowers,,1,NA,NA,graduated_college,small,NA,A3BHRFFG75X3GO,English,male,,NA,You and your friend see the following:,3,1567791909766,NA,NA,1.00,NA,NA,NA,basic,custom_main_text2
482,<i>What do you think Speaker A meant? </i>,NA,The Empire State Building is tall relative to other ,Fri Sep 06 2019 12:35:11 GMT-0500 (Central Daylight Time),NA,12,NA,NA,NA,No,1,3I7KR83SNA1HVEN1R51IUCB7OZQ9KA,NA,Mary,1,3U5JL4WY5LXP5SEPZVPIRI4HPJQ4XC,NA,NA,yes,NA,NA,"<b> Speaker A: ""The Empire State Building is tall.""</b>",38,buildings,None,NA,NA,NA,some_college,NA,comp_class_warmup,A1U5BE8XJRXKW3,English,male,NA,NA,In the main trials you will be asked to rephrase something a person said. The utterance will contain a word that is <i>relative</i> and your task is to figure out what it is relative to. <br /> <br /> For example: <br /><br />,1,1567791311211,1,NA,2.00,NA,NA,"buildings, scyscrapers, houses, constructions (choose one)",NA,comp_class_warmup
482,NA,hummingbird,NA,Fri Sep 06 2019 12:35:11 GMT-0500 (Central Daylight Time),NA,12,warmup/eagle.jpg,hummingbird,This is a ,No,1,3I7KR83SNA1HVEN1R51IUCB7OZQ9KA,birds,Mary,NA,3U5JL4WY5LXP5SEPZVPIRI4HPJQ4XC,eagle,NA,yes,Please label the pictures below.,NA,NA,38,NA,None,NA,warmup/colibri.jpg,birds,some_college,NA,NA,A1U5BE8XJRXKW3,English,male,NA,birds,NA,1,1567791311211,1,This is an ,2.00,These are both,eagle,NA,NA,warmup1
482,NA,swordfish,NA,Fri Sep 06 2019 12:35:11 GMT-0500 (Central Daylight Time),NA,12,warmup/goldfish.png,swordfish,This is a ,No,1,3I7KR83SNA1HVEN1R51IUCB7OZQ9KA,fish,Mary,NA,3U5JL4WY5LXP5SEPZVPIRI4HPJQ4XC,goldfish,NA,yes,Please label the pictures below.,NA,NA,38,NA,None,NA,warmup/swordfish.jpg,fish,some_college,NA,NA,A1U5BE8XJRXKW3,English,male,NA,fish,NA,2,1567791311211,1,This is a ,2.00,These are both,goldfish,NA,NA,warmup1
482,NA,redwood,NA,Fri Sep 06 2019 12:35:11 GMT-0500 (Central Daylight Time),NA,12,warmup/bonsai.jpg,redwood or sequoia (choose one),This is a ,No,1,3I7KR83SNA1HVEN1R51IUCB7OZQ9KA,trees,Mary,NA,3U5JL4WY5LXP5SEPZVPIRI4HPJQ4XC,bonsai,NA,yes,Please label the pictures below.,NA,NA,38,NA,None,NA,warmup/sequoia.png,trees,some_college,NA,NA,A1U5BE8XJRXKW3,English,male,NA,trees,NA,3,1567791311211,1,This is a ,2.00,These are both,bonsai,NA,NA,warmup1
482,What do you think your friend meant?,NA,It is big relative to other ,Fri Sep 06 2019 12:35:11 GMT-0500 (Central Daylight Time),images/bird-parade-hummingbird.png,12,NA,NA,NA,No,1,3I7KR83SNA1HVEN1R51IUCB7OZQ9KA,birds,Mary,NA,3U5JL4WY5LXP5SEPZVPIRI4HPJQ4XC,NA,2,yes,"You and your friend see another member of the group <br />(not pictured), and your friend says: <br/><b>That hummingbird is big.</b>",predicative,NA,38,hummingbirds,None,0,NA,NA,some_college,big,NA,A1U5BE8XJRXKW3,English,male,,NA,You and your friend see the following:,1,1567791311211,NA,NA,2.00,NA,NA,NA,incongr,custom_main_text1
482,What do you think your friend meant?,NA,It is big relative to other ,Fri Sep 06 2019 12:35:11 GMT-0500 (Central Daylight Time),images/tree-parade-basic.png,12,NA,NA,NA,No,1,3I7KR83SNA1HVEN1R51IUCB7OZQ9KA,trees,Mary,NA,3U5JL4WY5LXP5SEPZVPIRI4HPJQ4XC,NA,0,yes,"You and your friend see another member of the group <br />(not pictured), and your friend says: <br/><b>That one is big.</b>",predicative,NA,38,trees,None,1,NA,NA,some_college,big,NA,A1U5BE8XJRXKW3,English,male,,NA,You and your friend see the following:,2,1567791311211,NA,NA,2.00,NA,NA,NA,basic,custom_main_text1
482,What do you think your friend meant?,NA,It is big relative to other ,Fri Sep 06 2019 12:35:11 GMT-0500 (Central Daylight Time),images/fish-parade-swordfish.png,12,NA,NA,NA,No,1,3I7KR83SNA1HVEN1R51IUCB7OZQ9KA,fish,Mary,NA,3U5JL4WY5LXP5SEPZVPIRI4HPJQ4XC,NA,1,yes,"You and your friend see another member of the group <br />(not pictured), and your friend says: <br/><b>That one is big.</b>",predicative,NA,38,swordfish,None,1,NA,NA,some_college,big,NA,A1U5BE8XJRXKW3,English,male,,NA,You and your friend see the following:,3,1567791311211,NA,NA,2.00,NA,NA,NA,congr,custom_main_text1
482,NA,dandelion,NA,Fri Sep 06 2019 12:35:11 GMT-0500 (Central Daylight Time),NA,12,warmup/sunflower.png,dandelion,This is a ,No,1,3I7KR83SNA1HVEN1R51IUCB7OZQ9KA,flowers,Mary,NA,3U5JL4WY5LXP5SEPZVPIRI4HPJQ4XC,sunflower,NA,yes,Please label the pictures below.,NA,NA,38,NA,None,NA,warmup/dandelion.jpg,flowers,some_college,NA,NA,A1U5BE8XJRXKW3,English,male,NA,flowers,NA,1,1567791311211,1,This is a ,2.00,These are both,sunflower,NA,NA,warmup2
482,NA,chihuahua,NA,Fri Sep 06 2019 12:35:11 GMT-0500 (Central Daylight Time),NA,12,warmup/doberman.png,chihuahua,This is a ,No,1,3I7KR83SNA1HVEN1R51IUCB7OZQ9KA,dogs,Mary,NA,3U5JL4WY5LXP5SEPZVPIRI4HPJQ4XC,doberman,NA,yes,Please label the pictures below.,NA,NA,38,NA,None,NA,warmup/chihuahua.jpg,dogs,some_college,NA,NA,A1U5BE8XJRXKW3,English,male,NA,dogs,NA,2,1567791311211,1,This is a ,2.00,These are both,doberman,NA,NA,warmup2
482,NA,bulldog,NA,Fri Sep 06 2019 12:35:11 GMT-0500 (Central Daylight Time),NA,12,warmup/great-dane.jpg,pug,This is a ,No,1,3I7KR83SNA1HVEN1R51IUCB7OZQ9KA,dogs,Mary,NA,3U5JL4WY5LXP5SEPZVPIRI4HPJQ4XC,great dane,NA,yes,Please label the pictures below.,NA,NA,38,NA,None,NA,warmup/pug.jpg,dogs,some_college,NA,NA,A1U5BE8XJRXKW3,English,male,NA,dogs,NA,3,1567791311211,1,This is a ,2.00,These are both,weimaraner,NA,NA,warmup2
482,NA,bulldog,NA,Fri Sep 06 2019 12:35:11 GMT-0500 (Central Daylight Time),NA,12,warmup/great-dane.jpg,pug,This is a ,No,1,3I7KR83SNA1HVEN1R51IUCB7OZQ9KA,dogs,Mary,NA,3U5JL4WY5LXP5SEPZVPIRI4HPJQ4XC,great dane,NA,yes,Please label the pictures below.,NA,NA,38,NA,None,NA,warmup/pug.jpg,dogs,some_college,NA,NA,A1U5BE8XJRXKW3,English,male,NA,dogs,NA,3,1567791311211,2,This is a ,2.00,These are both,lab,NA,NA,warmup2
482,NA,bulldog,NA,Fri Sep 06 2019 12:35:11 GMT-0500 (Central Daylight Time),NA,12,warmup/great-dane.jpg,pug,This is a ,No,1,3I7KR83SNA1HVEN1R51IUCB7OZQ9KA,dogs,Mary,NA,3U5JL4WY5LXP5SEPZVPIRI4HPJQ4XC,great dane,NA,yes,Please label the pictures below.,NA,NA,38,NA,None,NA,warmup/pug.jpg,dogs,some_college,NA,NA,A1U5BE8XJRXKW3,English,male,NA,dogs,NA,3,1567791311211,3,This is a ,2.00,These are both,lab,NA,NA,warmup2
482,NA,pug,NA,Fri Sep 06 2019 12:35:11 GMT-0500 (Central Daylight Time),NA,12,warmup/great-dane.jpg,pug,This is a ,No,1,3I7KR83SNA1HVEN1R51IUCB7OZQ9KA,dogs,Mary,NA,3U5JL4WY5LXP5SEPZVPIRI4HPJQ4XC,great dane,NA,yes,Please label the pictures below.,NA,NA,38,NA,None,NA,warmup/pug.jpg,dogs,some_college,NA,NA,A1U5BE8XJRXKW3,English,male,NA,dogs,NA,3,1567791311211,4,This is a ,2.00,These are both,great dane,NA,NA,warmup2
482,What do you think your friend meant?,NA,It is small relative to other ,Fri Sep 06 2019 12:35:11 GMT-0500 (Central Daylight Time),images/flower-parade-basic.png,12,NA,NA,NA,No,1,3I7KR83SNA1HVEN1R51IUCB7OZQ9KA,flowers,Mary,NA,3U5JL4WY5LXP5SEPZVPIRI4HPJQ4XC,NA,0,yes,"You and your friend see another member of the group <br />(not pictured), and your friend says: <br/><b>That one is small.</b>",predicative,NA,38,flowers,None,1,NA,NA,some_college,small,NA,A1U5BE8XJRXKW3,English,male,,NA,You and your friend see the following:,1,1567791311211,NA,NA,2.00,NA,NA,NA,basic,custom_main_text2
482,What do you think your friend meant?,NA,It is big relative to other ,Fri Sep 06 2019 12:35:11 GMT-0500 (Central Daylight Time),images/dog-parade-basic.png,12,NA,NA,NA,No,1,3I7KR83SNA1HVEN1R51IUCB7OZQ9KA,dogs1,Mary,NA,3U5JL4WY5LXP5SEPZVPIRI4HPJQ4XC,NA,0,yes,"You and your friend see another member of the group <br />(not pictured), and your friend says: <br/><b>That doberman is big.</b>",predicative,NA,38,dogs,None,0,NA,NA,some_college,big,NA,A1U5BE8XJRXKW3,English,male,,NA,You and your friend see the following:,2,1567791311211,NA,NA,2.00,NA,NA,NA,basic,custom_main_text2
482,What do you think your friend meant?,NA,It is small relative to other ,Fri Sep 06 2019 12:35:11 GMT-0500 (Central Daylight Time),images/dog-parade-pug.png,12,NA,NA,NA,No,1,3I7KR83SNA1HVEN1R51IUCB7OZQ9KA,dogs2,Mary,NA,3U5JL4WY5LXP5SEPZVPIRI4HPJQ4XC,NA,1,yes,"You and your friend see another member of the group <br />(not pictured), and your friend says: <br/><b>That pug is small.</b>",predicative,NA,38,pugs,None,0,NA,NA,some_college,small,NA,A1U5BE8XJRXKW3,English,male,,NA,You and your friend see the following:,3,1567791311211,NA,NA,2.00,NA,NA,NA,congr,custom_main_text2
479,<i>What do you think Speaker A meant? </i>,NA,The Empire State Building is tall relative to other ,Fri Sep 06 2019 13:35:01 GMT-0400 (Eastern Daylight Time),NA,12,NA,NA,NA,none,1,3GKAWYFRAPHU9VXYGDBSCPGW9UAPD7,NA,barbara,1,3WLEIWSYHP5IGOZNQDO8VHJPHFBH20,NA,NA,yes,NA,NA,"<b> Speaker A: ""The Empire State Building is tall.""</b>",32,other buildings,Thank you!,NA,NA,NA,higher_degree,NA,comp_class_warmup,A3VENK02U0X16N,english,female,NA,NA,In the main trials you will be asked to rephrase something a person said. The utterance will contain a word that is <i>relative</i> and your task is to figure out what it is relative to. <br /> <br /> For example: <br /><br />,1,1567791301097,1,NA,1,NA,NA,"buildings, scyscrapers, houses, constructions (choose one)",NA,comp_class_warmup
479,<i>What do you think Speaker A meant? </i>,NA,The Empire State Building is tall relative to other ,Fri Sep 06 2019 13:35:01 GMT-0400 (Eastern Daylight Time),NA,12,NA,NA,NA,none,1,3GKAWYFRAPHU9VXYGDBSCPGW9UAPD7,NA,barbara,1,3WLEIWSYHP5IGOZNQDO8VHJPHFBH20,NA,NA,yes,NA,NA,"<b> Speaker A: ""The Empire State Building is tall.""</b>",32,buildings,Thank you!,NA,NA,NA,higher_degree,NA,comp_class_warmup,A3VENK02U0X16N,english,female,NA,NA,In the main trials you will be asked to rephrase something a person said. The utterance will contain a word that is <i>relative</i> and your task is to figure out what it is relative to. <br /> <br /> For example: <br /><br />,1,1567791301097,2,NA,1,NA,NA,"buildings, scyscrapers, houses, constructions (choose one)",NA,comp_class_warmup
479,NA,pug,NA,Fri Sep 06 2019 13:35:01 GMT-0400 (Eastern Daylight Time),NA,12,warmup/great-dane.jpg,pug,This is a ,none,1,3GKAWYFRAPHU9VXYGDBSCPGW9UAPD7,dogs,barbara,NA,3WLEIWSYHP5IGOZNQDO8VHJPHFBH20,great dane,NA,yes,Please label the pictures below.,NA,NA,32,NA,Thank you!,NA,warmup/pug.jpg,dogs,higher_degree,NA,NA,A3VENK02U0X16N,english,female,NA,dogs,NA,1,1567791301097,1,This is a ,1,These are both,great dane,NA,NA,warmup1
479,NA,chihuahua,NA,Fri Sep 06 2019 13:35:01 GMT-0400 (Eastern Daylight Time),NA,12,warmup/doberman.png,chihuahua,This is a ,none,1,3GKAWYFRAPHU9VXYGDBSCPGW9UAPD7,dogs,barbara,NA,3WLEIWSYHP5IGOZNQDO8VHJPHFBH20,doberman,NA,yes,Please label the pictures below.,NA,NA,32,NA,Thank you!,NA,warmup/chihuahua.jpg,dogs,higher_degree,NA,NA,A3VENK02U0X16N,english,female,NA,dogs,NA,2,1567791301097,1,This is a ,1,These are both,doberman,NA,NA,warmup1
479,NA,dandilion,NA,Fri Sep 06 2019 13:35:01 GMT-0400 (Eastern Daylight Time),NA,12,warmup/sunflower.png,dandelion,This is a ,none,1,3GKAWYFRAPHU9VXYGDBSCPGW9UAPD7,flowers,barbara,NA,3WLEIWSYHP5IGOZNQDO8VHJPHFBH20,sunflower,NA,yes,Please label the pictures below.,NA,NA,32,NA,Thank you!,NA,warmup/dandelion.jpg,flowers,higher_degree,NA,NA,A3VENK02U0X16N,english,female,NA,flowers,NA,3,1567791301097,1,This is a ,1,These are both,sunflower,NA,NA,warmup1
479,NA,dandelion,NA,Fri Sep 06 2019 13:35:01 GMT-0400 (Eastern Daylight Time),NA,12,warmup/sunflower.png,dandelion,This is a ,none,1,3GKAWYFRAPHU9VXYGDBSCPGW9UAPD7,flowers,barbara,NA,3WLEIWSYHP5IGOZNQDO8VHJPHFBH20,sunflower,NA,yes,Please label the pictures below.,NA,NA,32,NA,Thank you!,NA,warmup/dandelion.jpg,flowers,higher_degree,NA,NA,A3VENK02U0X16N,english,female,NA,flowers,NA,3,1567791301097,2,This is a ,1,These are both,sunflower,NA,NA,warmup1
479,What do you think your friend meant?,NA,It is small relative to other ,Fri Sep 06 2019 13:35:01 GMT-0400 (Eastern Daylight Time),images/dog-parade-basic.png,12,NA,NA,NA,none,1,3GKAWYFRAPHU9VXYGDBSCPGW9UAPD7,dogs1,barbara,NA,3WLEIWSYHP5IGOZNQDO8VHJPHFBH20,NA,0,yes,"You and your friend see another member of the group <br />(not pictured), and your friend says: <br/><b>That chihuahua is small.</b>",predicative,NA,32,dogs,Thank you!,0,NA,NA,higher_degree,small,NA,A3VENK02U0X16N,english,female,,NA,You and your friend see the following:,1,1567791301097,NA,NA,1,NA,NA,NA,basic,custom_main_text1
479,What do you think your friend meant?,NA,It is small relative to other ,Fri Sep 06 2019 13:35:01 GMT-0400 (Eastern Daylight Time),images/flower-parade-dandelion.png,12,NA,NA,NA,none,1,3GKAWYFRAPHU9VXYGDBSCPGW9UAPD7,flowers,barbara,NA,3WLEIWSYHP5IGOZNQDO8VHJPHFBH20,NA,1,yes,"You and your friend see another member of the group <br />(not pictured), and your friend says: <br/><b>That one is small.</b>",predicative,NA,32,dandelions,Thank you!,1,NA,NA,higher_degree,small,NA,A3VENK02U0X16N,english,female,,NA,You and your friend see the following:,2,1567791301097,NA,NA,1,NA,NA,NA,congr,custom_main_text1
479,What do you think your friend meant?,NA,It is small relative to other ,Fri Sep 06 2019 13:35:01 GMT-0400 (Eastern Daylight Time),images/dog-parade-pug.png,12,NA,NA,NA,none,1,3GKAWYFRAPHU9VXYGDBSCPGW9UAPD7,dogs2,barbara,NA,3WLEIWSYHP5IGOZNQDO8VHJPHFBH20,NA,1,yes,"You and your friend see another member of the group <br />(not pictured), and your friend says: <br/><b>That pug is small.</b>",predicative,NA,32,pugs,Thank you!,0,NA,NA,higher_degree,small,NA,A3VENK02U0X16N,english,female,,NA,You and your friend see the following:,3,1567791301097,NA,NA,1,NA,NA,NA,congr,custom_main_text1
479,NA,hummingbird,NA,Fri Sep 06 2019 13:35:01 GMT-0400 (Eastern Daylight Time),NA,12,warmup/eagle.jpg,hummingbird,This is a ,none,1,3GKAWYFRAPHU9VXYGDBSCPGW9UAPD7,birds,barbara,NA,3WLEIWSYHP5IGOZNQDO8VHJPHFBH20,eagle,NA,yes,Please label the pictures below.,NA,NA,32,NA,Thank you!,NA,warmup/colibri.jpg,birds,higher_degree,NA,NA,A3VENK02U0X16N,english,female,NA,birds,NA,1,1567791301097,1,This is an ,1,These are both,eagle,NA,NA,warmup2
479,NA,swordfish,NA,Fri Sep 06 2019 13:35:01 GMT-0400 (Eastern Daylight Time),NA,12,warmup/goldfish.png,swordfish,This is a ,none,1,3GKAWYFRAPHU9VXYGDBSCPGW9UAPD7,fish,barbara,NA,3WLEIWSYHP5IGOZNQDO8VHJPHFBH20,goldfish,NA,yes,Please label the pictures below.,NA,NA,32,NA,Thank you!,NA,warmup/swordfish.jpg,fish,higher_degree,NA,NA,A3VENK02U0X16N,english,female,NA,fish,NA,2,1567791301097,1,This is a ,1,These are both,goldfish,NA,NA,warmup2
479,NA,redwood,NA,Fri Sep 06 2019 13:35:01 GMT-0400 (Eastern Daylight Time),NA,12,warmup/bonsai.jpg,redwood or sequoia (choose one),This is a ,none,1,3GKAWYFRAPHU9VXYGDBSCPGW9UAPD7,trees,barbara,NA,3WLEIWSYHP5IGOZNQDO8VHJPHFBH20,bonsai,NA,yes,Please label the pictures below.,NA,NA,32,NA,Thank you!,NA,warmup/sequoia.png,trees,higher_degree,NA,NA,A3VENK02U0X16N,english,female,NA,trees,NA,3,1567791301097,1,This is a ,1,These are both,bonsai,NA,NA,warmup2
479,What do you think your friend meant?,NA,It is small relative to other ,Fri Sep 06 2019 13:35:01 GMT-0400 (Eastern Daylight Time),images/tree-parade-redwood.png,12,NA,NA,NA,none,1,3GKAWYFRAPHU9VXYGDBSCPGW9UAPD7,trees,barbara,NA,3WLEIWSYHP5IGOZNQDO8VHJPHFBH20,NA,2,yes,"You and your friend see another member of the group <br />(not pictured), and your friend says: <br/><b>That one is small.</b>",predicative,NA,32,redwoods,Thank you!,1,NA,NA,higher_degree,small,NA,A3VENK02U0X16N,english,female,,NA,You and your friend see the following:,1,1567791301097,NA,NA,1,NA,NA,NA,incongr,custom_main_text2
479,What do you think your friend meant?,NA,It is big relative to other ,Fri Sep 06 2019 13:35:01 GMT-0400 (Eastern Daylight Time),images/bird-parade-basic.png,12,NA,NA,NA,none,1,3GKAWYFRAPHU9VXYGDBSCPGW9UAPD7,birds,barbara,NA,3WLEIWSYHP5IGOZNQDO8VHJPHFBH20,NA,0,yes,"You and your friend see another member of the group <br />(not pictured), and your friend says: <br/><b>That eagle is big.</b>",predicative,NA,32,birds,Thank you!,0,NA,NA,higher_degree,big,NA,A3VENK02U0X16N,english,female,,NA,You and your friend see the following:,2,1567791301097,NA,NA,1,NA,NA,NA,basic,custom_main_text2
479,What do you think your friend meant?,NA,It is big relative to other ,Fri Sep 06 2019 13:35:01 GMT-0400 (Eastern Daylight Time),images/fish-parade-basic.png,12,NA,NA,NA,none,1,3GKAWYFRAPHU9VXYGDBSCPGW9UAPD7,fish,barbara,NA,3WLEIWSYHP5IGOZNQDO8VHJPHFBH20,NA,0,yes,"You and your friend see another member of the group <br />(not pictured), and your friend says: <br/><b>That one is big.</b>",predicative,NA,32,fish,Thank you!,1,NA,NA,higher_degree,big,NA,A3VENK02U0X16N,english,female,,NA,You and your friend see the following:,3,1567791301097,NA,NA,1,NA,NA,NA,basic,custom_main_text2
478,<i>What do you think Speaker A meant? </i>,NA,The Empire State Building is tall relative to other ,Fri Sep 06 2019 10:35:30 GMT-0700 (PDT),NA,12,NA,NA,NA,some of the words you wanted were hard to spell! Like Chiuauaua or sequoia.,2,3GKAWYFRAPHU9VXYGDBSCPGW9UAPD7,NA,patricia,1,3R5F3LQFV38IEGOMJXSC21QXEANZOD,NA,NA,yes,NA,NA,"<b> Speaker A: ""The Empire State Building is tall.""</b>",32,buildings,,NA,NA,NA,graduated_college,NA,comp_class_warmup,A1C2T79XTDHE39,English,female,NA,NA,In the main trials you will be asked to rephrase something a person said. The utterance will contain a word that is <i>relative</i> and your task is to figure out what it is relative to. <br /> <br /> For example: <br /><br />,1,1567791330482,1,NA,,NA,NA,"buildings, scyscrapers, houses, constructions (choose one)",NA,comp_class_warmup
478,NA,tree,NA,Fri Sep 06 2019 10:35:30 GMT-0700 (PDT),NA,12,warmup/bonsai.jpg,redwood or sequoia (choose one),This is a ,some of the words you wanted were hard to spell! Like Chiuauaua or sequoia.,2,3GKAWYFRAPHU9VXYGDBSCPGW9UAPD7,trees,patricia,NA,3R5F3LQFV38IEGOMJXSC21QXEANZOD,bonsai,NA,yes,Please label the pictures below.,NA,NA,32,NA,,NA,warmup/sequoia.png,plants,graduated_college,NA,NA,A1C2T79XTDHE39,English,female,NA,trees,NA,1,1567791330482,1,This is a ,,These are both,bush,NA,NA,warmup1
478,NA,redwood,NA,Fri Sep 06 2019 10:35:30 GMT-0700 (PDT),NA,12,warmup/bonsai.jpg,redwood or sequoia (choose one),This is a ,some of the words you wanted were hard to spell! Like Chiuauaua or sequoia.,2,3GKAWYFRAPHU9VXYGDBSCPGW9UAPD7,trees,patricia,NA,3R5F3LQFV38IEGOMJXSC21QXEANZOD,bonsai,NA,yes,Please label the pictures below.,NA,NA,32,NA,,NA,warmup/sequoia.png,trees,graduated_college,NA,NA,A1C2T79XTDHE39,English,female,NA,trees,NA,1,1567791330482,2,This is a ,,These are both,bonsai,NA,NA,warmup1
478,NA,pug,NA,Fri Sep 06 2019 10:35:30 GMT-0700 (PDT),NA,12,warmup/great-dane.jpg,pug,This is a ,some of the words you wanted were hard to spell! Like Chiuauaua or sequoia.,2,3GKAWYFRAPHU9VXYGDBSCPGW9UAPD7,dogs,patricia,NA,3R5F3LQFV38IEGOMJXSC21QXEANZOD,great dane,NA,yes,Please label the pictures below.,NA,NA,32,NA,,NA,warmup/pug.jpg,dogs,graduated_college,NA,NA,A1C2T79XTDHE39,English,female,NA,dogs,NA,2,1567791330482,1,This is a ,,These are both,great dane,NA,NA,warmup1
478,NA,dandelion,NA,Fri Sep 06 2019 10:35:30 GMT-0700 (PDT),NA,12,warmup/sunflower.png,dandelion,This is a ,some of the words you wanted were hard to spell! Like Chiuauaua or sequoia.,2,3GKAWYFRAPHU9VXYGDBSCPGW9UAPD7,flowers,patricia,NA,3R5F3LQFV38IEGOMJXSC21QXEANZOD,sunflower,NA,yes,Please label the pictures below.,NA,NA,32,NA,,NA,warmup/dandelion.jpg,flowers,graduated_college,NA,NA,A1C2T79XTDHE39,English,female,NA,flowers,NA,3,1567791330482,1,This is a ,,These are both,sunflower,NA,NA,warmup1
478,What do you think your friend meant?,NA,It is big relative to other ,Fri Sep 06 2019 10:35:30 GMT-0700 (PDT),images/flower-parade-basic.png,12,NA,NA,NA,some of the words you wanted were hard to spell! Like Chiuauaua or sequoia.,2,3GKAWYFRAPHU9VXYGDBSCPGW9UAPD7,flowers,patricia,NA,3R5F3LQFV38IEGOMJXSC21QXEANZOD,NA,0,yes,"You and your friend see another member of the group <br />(not pictured), and your friend says: <br/><b>That sunflower is big.</b>",predicative,NA,32,flowers,,0,NA,NA,graduated_college,big,NA,A1C2T79XTDHE39,English,female,,NA,You and your friend see the following:,1,1567791330482,NA,NA,,NA,NA,NA,basic,custom_main_text1
478,What do you think your friend meant?,NA,It is big relative to other ,Fri Sep 06 2019 10:35:30 GMT-0700 (PDT),images/dog-parade-great-dane.png,12,NA,NA,NA,some of the words you wanted were hard to spell! Like Chiuauaua or sequoia.,2,3GKAWYFRAPHU9VXYGDBSCPGW9UAPD7,dogs2,patricia,NA,3R5F3LQFV38IEGOMJXSC21QXEANZOD,NA,1,yes,"You and your friend see another member of the group <br />(not pictured), and your friend says: <br/><b>That one is big.</b>",predicative,NA,32,dogs,,1,NA,NA,graduated_college,big,NA,A1C2T79XTDHE39,English,female,,NA,You and your friend see the following:,2,1567791330482,NA,NA,,NA,NA,NA,congr,custom_main_text1
478,What do you think your friend meant?,NA,It is big relative to other ,Fri Sep 06 2019 10:35:30 GMT-0700 (PDT),images/tree-parade-redwood.png,12,NA,NA,NA,some of the words you wanted were hard to spell! Like Chiuauaua or sequoia.,2,3GKAWYFRAPHU9VXYGDBSCPGW9UAPD7,trees,patricia,NA,3R5F3LQFV38IEGOMJXSC21QXEANZOD,NA,1,yes,"You and your friend see another member of the group <br />(not pictured), and your friend says: <br/><b>That redwood is big.</b>",predicative,NA,32,trees,,0,NA,NA,graduated_college,big,NA,A1C2T79XTDHE39,English,female,,NA,You and your friend see the following:,3,1567791330482,NA,NA,,NA,NA,NA,congr,custom_main_text1
478,NA,hummingbird,NA,Fri Sep 06 2019 10:35:30 GMT-0700 (PDT),NA,12,warmup/eagle.jpg,hummingbird,This is a ,some of the words you wanted were hard to spell! Like Chiuauaua or sequoia.,2,3GKAWYFRAPHU9VXYGDBSCPGW9UAPD7,birds,patricia,NA,3R5F3LQFV38IEGOMJXSC21QXEANZOD,eagle,NA,yes,Please label the pictures below.,NA,NA,32,NA,,NA,warmup/colibri.jpg,birds,graduated_college,NA,NA,A1C2T79XTDHE39,English,female,NA,birds,NA,1,1567791330482,1,This is an ,,These are both,eagle,NA,NA,warmup2
478,NA,swordfish,NA,Fri Sep 06 2019 10:35:30 GMT-0700 (PDT),NA,12,warmup/goldfish.png,swordfish,This is a ,some of the words you wanted were hard to spell! Like Chiuauaua or sequoia.,2,3GKAWYFRAPHU9VXYGDBSCPGW9UAPD7,fish,patricia,NA,3R5F3LQFV38IEGOMJXSC21QXEANZOD,goldfish,NA,yes,Please label the pictures below.,NA,NA,32,NA,,NA,warmup/swordfish.jpg,fish,graduated_college,NA,NA,A1C2T79XTDHE39,English,female,NA,fish,NA,2,1567791330482,1,This is a ,,These are both,goldfish,NA,NA,warmup2
478,NA,chiuauau,NA,Fri Sep 06 2019 10:35:30 GMT-0700 (PDT),NA,12,warmup/doberman.png,chihuahua,This is a ,some of the words you wanted were hard to spell! Like Chiuauaua or sequoia.,2,3GKAWYFRAPHU9VXYGDBSCPGW9UAPD7,dogs,patricia,NA,3R5F3LQFV38IEGOMJXSC21QXEANZOD,doberman,NA,yes,Please label the pictures below.,NA,NA,32,NA,,NA,warmup/chihuahua.jpg,dogs,graduated_college,NA,NA,A1C2T79XTDHE39,English,female,NA,dogs,NA,3,1567791330482,1,This is a ,,These are both,alsaitain,NA,NA,warmup2
478,NA,chihuahua,NA,Fri Sep 06 2019 10:35:30 GMT-0700 (PDT),NA,12,warmup/doberman.png,chihuahua,This is a ,some of the words you wanted were hard to spell! Like Chiuauaua or sequoia.,2,3GKAWYFRAPHU9VXYGDBSCPGW9UAPD7,dogs,patricia,NA,3R5F3LQFV38IEGOMJXSC21QXEANZOD,doberman,NA,yes,Please label the pictures below.,NA,NA,32,NA,,NA,warmup/chihuahua.jpg,dogs,graduated_college,NA,NA,A1C2T79XTDHE39,English,female,NA,dogs,NA,3,1567791330482,2,This is a ,,These are both,doberman,NA,NA,warmup2
478,What do you think your friend meant?,NA,It is small relative to other ,Fri Sep 06 2019 10:35:30 GMT-0700 (PDT),images/bird-parade-basic.png,12,NA,NA,NA,some of the words you wanted were hard to spell! Like Chiuauaua or sequoia.,2,3GKAWYFRAPHU9VXYGDBSCPGW9UAPD7,birds,patricia,NA,3R5F3LQFV38IEGOMJXSC21QXEANZOD,NA,0,yes,"You and your friend see another member of the group <br />(not pictured), and your friend says: <br/><b>That hummingbird is small.</b>",predicative,NA,32,birds,,0,NA,NA,graduated_college,small,NA,A1C2T79XTDHE39,English,female,,NA,You and your friend see the following:,1,1567791330482,NA,NA,,NA,NA,NA,basic,custom_main_text2
478,What do you think your friend meant?,NA,It is small relative to other ,Fri Sep 06 2019 10:35:30 GMT-0700 (PDT),images/dog-parade-chihuahua.png,12,NA,NA,NA,some of the words you wanted were hard to spell! Like Chiuauaua or sequoia.,2,3GKAWYFRAPHU9VXYGDBSCPGW9UAPD7,dogs1,patricia,NA,3R5F3LQFV38IEGOMJXSC21QXEANZOD,NA,1,yes,"You and your friend see another member of the group <br />(not pictured), and your friend says: <br/><b>That one is small.</b>",predicative,NA,32,dogs,,1,NA,NA,graduated_college,small,NA,A1C2T79XTDHE39,English,female,,NA,You and your friend see the following:,2,1567791330482,NA,NA,,NA,NA,NA,congr,custom_main_text2
478,What do you think your friend meant?,NA,It is small relative to other ,Fri Sep 06 2019 10:35:30 GMT-0700 (PDT),images/fish-parade-basic.png,12,NA,NA,NA,some of the words you wanted were hard to spell! Like Chiuauaua or sequoia.,2,3GKAWYFRAPHU9VXYGDBSCPGW9UAPD7,fish,patricia,NA,3R5F3LQFV38IEGOMJXSC21QXEANZOD,NA,0,yes,"You and your friend see another member of the group <br />(not pictured), and your friend says: <br/><b>That one is small.</b>",predicative,NA,32,fish,,1,NA,NA,graduated_college,small,NA,A1C2T79XTDHE39,English,female,,NA,You and your friend see the following:,3,1567791330482,NA,NA,,NA,NA,NA,basic,custom_main_text2
476,<i>What do you think Speaker A meant? </i>,NA,The Empire State Building is tall relative to other ,Fri Sep 06 2019 13:34:40 GMT-0400 (Eastern Daylight Time),NA,12,NA,NA,NA,No,2,3GKAWYFRAPHU9VXYGDBSCPGW9UAPD7,NA,Linda,1,39ZSFO5CA9KNR63FXX1ZDDUWDYZJUQ,NA,NA,yes,NA,NA,"<b> Speaker A: ""The Empire State Building is tall.""</b>",31,buildings,,NA,NA,NA,graduated_college,NA,comp_class_warmup,A2FXD55FJV1RSV,English,male,NA,NA,In the main trials you will be asked to rephrase something a person said. The utterance will contain a word that is <i>relative</i> and your task is to figure out what it is relative to. <br /> <br /> For example: <br /><br />,1,1567791280022,1,NA,1.00,NA,NA,"buildings, scyscrapers, houses, constructions (choose one)",NA,comp_class_warmup
476,NA,oak,NA,Fri Sep 06 2019 13:34:40 GMT-0400 (Eastern Daylight Time),NA,12,warmup/bonsai.jpg,redwood or sequoia (choose one),This is a ,No,2,3GKAWYFRAPHU9VXYGDBSCPGW9UAPD7,trees,Linda,NA,39ZSFO5CA9KNR63FXX1ZDDUWDYZJUQ,bonsai,NA,yes,Please label the pictures below.,NA,NA,31,NA,,NA,warmup/sequoia.png,trees,graduated_college,NA,NA,A2FXD55FJV1RSV,English,male,NA,trees,NA,1,1567791280022,1,This is a ,1.00,These are both,bonsai,NA,NA,warmup1
476,NA,redwood,NA,Fri Sep 06 2019 13:34:40 GMT-0400 (Eastern Daylight Time),NA,12,warmup/bonsai.jpg,redwood or sequoia (choose one),This is a ,No,2,3GKAWYFRAPHU9VXYGDBSCPGW9UAPD7,trees,Linda,NA,39ZSFO5CA9KNR63FXX1ZDDUWDYZJUQ,bonsai,NA,yes,Please label the pictures below.,NA,NA,31,NA,,NA,warmup/sequoia.png,trees,graduated_college,NA,NA,A2FXD55FJV1RSV,English,male,NA,trees,NA,1,1567791280022,2,This is a ,1.00,These are both,bonsai,NA,NA,warmup1
476,NA,hummingbird,NA,Fri Sep 06 2019 13:34:40 GMT-0400 (Eastern Daylight Time),NA,12,warmup/eagle.jpg,hummingbird,This is a ,No,2,3GKAWYFRAPHU9VXYGDBSCPGW9UAPD7,birds,Linda,NA,39ZSFO5CA9KNR63FXX1ZDDUWDYZJUQ,eagle,NA,yes,Please label the pictures below.,NA,NA,31,NA,,NA,warmup/colibri.jpg,birds,graduated_college,NA,NA,A2FXD55FJV1RSV,English,male,NA,birds,NA,2,1567791280022,1,This is an ,1.00,These are both,eagle,NA,NA,warmup1
476,NA,dandelion,NA,Fri Sep 06 2019 13:34:40 GMT-0400 (Eastern Daylight Time),NA,12,warmup/sunflower.png,dandelion,This is a ,No,2,3GKAWYFRAPHU9VXYGDBSCPGW9UAPD7,flowers,Linda,NA,39ZSFO5CA9KNR63FXX1ZDDUWDYZJUQ,sunflower,NA,yes,Please label the pictures below.,NA,NA,31,NA,,NA,warmup/dandelion.jpg,flowers,graduated_college,NA,NA,A2FXD55FJV1RSV,English,male,NA,flowers,NA,3,1567791280022,1,This is a ,1.00,These are both,sunflower,NA,NA,warmup1
476,What do you think your friend meant?,NA,It is big relative to other ,Fri Sep 06 2019 13:34:40 GMT-0400 (Eastern Daylight Time),images/tree-parade-basic.png,12,NA,NA,NA,No,2,3GKAWYFRAPHU9VXYGDBSCPGW9UAPD7,trees,Linda,NA,39ZSFO5CA9KNR63FXX1ZDDUWDYZJUQ,NA,0,yes,"You and your friend see another member of the group <br />(not pictured), and your friend says: <br/><b>That redwood is big.</b>",predicative,NA,31,trees,,0,NA,NA,graduated_college,big,NA,A2FXD55FJV1RSV,English,male,,NA,You and your friend see the following:,1,1567791280022,NA,NA,1.00,NA,NA,NA,basic,custom_main_text1
476,What do you think your friend meant?,NA,It is small relative to other ,Fri Sep 06 2019 13:34:40 GMT-0400 (Eastern Daylight Time),images/bird-parade-basic.png,12,NA,NA,NA,No,2,3GKAWYFRAPHU9VXYGDBSCPGW9UAPD7,birds,Linda,NA,39ZSFO5CA9KNR63FXX1ZDDUWDYZJUQ,NA,0,yes,"You and your friend see another member of the group <br />(not pictured), and your friend says: <br/><b>That one is small.</b>",predicative,NA,31,birds,,1,NA,NA,graduated_college,small,NA,A2FXD55FJV1RSV,English,male,,NA,You and your friend see the following:,2,1567791280022,NA,NA,1.00,NA,NA,NA,basic,custom_main_text1
476,What do you think your friend meant?,NA,It is small relative to other ,Fri Sep 06 2019 13:34:40 GMT-0400 (Eastern Daylight Time),images/flower-parade-dandelion.png,12,NA,NA,NA,No,2,3GKAWYFRAPHU9VXYGDBSCPGW9UAPD7,flowers,Linda,NA,39ZSFO5CA9KNR63FXX1ZDDUWDYZJUQ,NA,1,yes,"You and your friend see another member of the group <br />(not pictured), and your friend says: <br/><b>That dandelion is small.</b>",predicative,NA,31,flowers,,0,NA,NA,graduated_college,small,NA,A2FXD55FJV1RSV,English,male,,NA,You and your friend see the following:,3,1567791280022,NA,NA,1.00,NA,NA,NA,congr,custom_main_text1
476,NA,chihuahua,NA,Fri Sep 06 2019 13:34:40 GMT-0400 (Eastern Daylight Time),NA,12,warmup/doberman.png,chihuahua,This is a ,No,2,3GKAWYFRAPHU9VXYGDBSCPGW9UAPD7,dogs,Linda,NA,39ZSFO5CA9KNR63FXX1ZDDUWDYZJUQ,doberman,NA,yes,Please label the pictures below.,NA,NA,31,NA,,NA,warmup/chihuahua.jpg,dogs,graduated_college,NA,NA,A2FXD55FJV1RSV,English,male,NA,dogs,NA,1,1567791280022,1,This is a ,1.00,These are both,doberman,NA,NA,warmup2
476,NA,pug,NA,Fri Sep 06 2019 13:34:40 GMT-0400 (Eastern Daylight Time),NA,12,warmup/great-dane.jpg,pug,This is a ,No,2,3GKAWYFRAPHU9VXYGDBSCPGW9UAPD7,dogs,Linda,NA,39ZSFO5CA9KNR63FXX1ZDDUWDYZJUQ,great dane,NA,yes,Please label the pictures below.,NA,NA,31,NA,,NA,warmup/pug.jpg,dogs,graduated_college,NA,NA,A2FXD55FJV1RSV,English,male,NA,dogs,NA,2,1567791280022,1,This is a ,1.00,These are both,great dane,NA,NA,warmup2
476,NA,swordfish,NA,Fri Sep 06 2019 13:34:40 GMT-0400 (Eastern Daylight Time),NA,12,warmup/goldfish.png,swordfish,This is a ,No,2,3GKAWYFRAPHU9VXYGDBSCPGW9UAPD7,fish,Linda,NA,39ZSFO5CA9KNR63FXX1ZDDUWDYZJUQ,goldfish,NA,yes,Please label the pictures below.,NA,NA,31,NA,,NA,warmup/swordfish.jpg,fish,graduated_college,NA,NA,A2FXD55FJV1RSV,English,male,NA,fish,NA,3,1567791280022,1,This is a ,1.00,These are both,goldfish,NA,NA,warmup2
476,What do you think your friend meant?,NA,It is big relative to other ,Fri Sep 06 2019 13:34:40 GMT-0400 (Eastern Daylight Time),images/dog-parade-doberman.png,12,NA,NA,NA,No,2,3GKAWYFRAPHU9VXYGDBSCPGW9UAPD7,dogs1,Linda,NA,39ZSFO5CA9KNR63FXX1ZDDUWDYZJUQ,NA,1,yes,"You and your friend see another member of the group <br />(not pictured), and your friend says: <br/><b>That one is big.</b>",predicative,NA,31,dobermans,,1,NA,NA,graduated_college,big,NA,A2FXD55FJV1RSV,English,male,,NA,You and your friend see the following:,1,1567791280022,NA,NA,1.00,NA,NA,NA,congr,custom_main_text2
476,What do you think your friend meant?,NA,It is small relative to other ,Fri Sep 06 2019 13:34:40 GMT-0400 (Eastern Daylight Time),images/fish-parade-basic.png,12,NA,NA,NA,No,2,3GKAWYFRAPHU9VXYGDBSCPGW9UAPD7,fish,Linda,NA,39ZSFO5CA9KNR63FXX1ZDDUWDYZJUQ,NA,0,yes,"You and your friend see another member of the group <br />(not pictured), and your friend says: <br/><b>That goldfish is small.</b>",predicative,NA,31,fish,,0,NA,NA,graduated_college,small,NA,A2FXD55FJV1RSV,English,male,,NA,You and your friend see the following:,2,1567791280022,NA,NA,1.00,NA,NA,NA,basic,custom_main_text2
476,What do you think your friend meant?,NA,It is big relative to other ,Fri Sep 06 2019 13:34:40 GMT-0400 (Eastern Daylight Time),images/dog-parade-great-dane.png,12,NA,NA,NA,No,2,3GKAWYFRAPHU9VXYGDBSCPGW9UAPD7,dogs2,Linda,NA,39ZSFO5CA9KNR63FXX1ZDDUWDYZJUQ,NA,1,yes,"You and your friend see another member of the group <br />(not pictured), and your friend says: <br/><b>That one is big.</b>",predicative,NA,31,dogs,,1,NA,NA,graduated_college,big,NA,A2FXD55FJV1RSV,English,male,,NA,You and your friend see the following:,3,1567791280022,NA,NA,1.00,NA,NA,NA,congr,custom_main_text2
474,<i>What do you think Speaker A meant? </i>,NA,The Empire State Building is tall relative to other ,Fri Sep 06 2019 13:29:17 GMT-0400 (Eastern Daylight Time),NA,12,NA,NA,NA,No,2,3GKAWYFRAPHU9VXYGDBSCPGW9UAPD7,NA,jennifer,1,3A0EX8ZRN9CYQWP8J6L7IAHW1H1BYV,NA,NA,yes,NA,NA,"<b> Speaker A: ""The Empire State Building is tall.""</b>",32,other buildings,Enjoyable,NA,NA,NA,graduated_college,NA,comp_class_warmup,A1KA64FR47O9FS,English,male,NA,NA,In the main trials you will be asked to rephrase something a person said. The utterance will contain a word that is <i>relative</i> and your task is to figure out what it is relative to. <br /> <br /> For example: <br /><br />,1,1567790957659,1,NA,1,NA,NA,"buildings, scyscrapers, houses, constructions (choose one)",NA,comp_class_warmup
474,<i>What do you think Speaker A meant? </i>,NA,The Empire State Building is tall relative to other ,Fri Sep 06 2019 13:29:17 GMT-0400 (Eastern Daylight Time),NA,12,NA,NA,NA,No,2,3GKAWYFRAPHU9VXYGDBSCPGW9UAPD7,NA,jennifer,1,3A0EX8ZRN9CYQWP8J6L7IAHW1H1BYV,NA,NA,yes,NA,NA,"<b> Speaker A: ""The Empire State Building is tall.""</b>",32,buildings,Enjoyable,NA,NA,NA,graduated_college,NA,comp_class_warmup,A1KA64FR47O9FS,English,male,NA,NA,In the main trials you will be asked to rephrase something a person said. The utterance will contain a word that is <i>relative</i> and your task is to figure out what it is relative to. <br /> <br /> For example: <br /><br />,1,1567790957659,2,NA,1,NA,NA,"buildings, scyscrapers, houses, constructions (choose one)",NA,comp_class_warmup
474,NA,swordfish,NA,Fri Sep 06 2019 13:29:17 GMT-0400 (Eastern Daylight Time),NA,12,warmup/goldfish.png,swordfish,This is a ,No,2,3GKAWYFRAPHU9VXYGDBSCPGW9UAPD7,fish,jennifer,NA,3A0EX8ZRN9CYQWP8J6L7IAHW1H1BYV,goldfish,NA,yes,Please label the pictures below.,NA,NA,32,NA,Enjoyable,NA,warmup/swordfish.jpg,fish,graduated_college,NA,NA,A1KA64FR47O9FS,English,male,NA,fish,NA,1,1567790957659,1,This is a ,1,These are both,goldfish,NA,NA,warmup1
474,NA,dandelion,NA,Fri Sep 06 2019 13:29:17 GMT-0400 (Eastern Daylight Time),NA,12,warmup/sunflower.png,dandelion,This is a ,No,2,3GKAWYFRAPHU9VXYGDBSCPGW9UAPD7,flowers,jennifer,NA,3A0EX8ZRN9CYQWP8J6L7IAHW1H1BYV,sunflower,NA,yes,Please label the pictures below.,NA,NA,32,NA,Enjoyable,NA,warmup/dandelion.jpg,plants,graduated_college,NA,NA,A1KA64FR47O9FS,English,male,NA,flowers,NA,2,1567790957659,1,This is a ,1,These are both,sunflower,NA,NA,warmup1
474,NA,dandelion,NA,Fri Sep 06 2019 13:29:17 GMT-0400 (Eastern Daylight Time),NA,12,warmup/sunflower.png,dandelion,This is a ,No,2,3GKAWYFRAPHU9VXYGDBSCPGW9UAPD7,flowers,jennifer,NA,3A0EX8ZRN9CYQWP8J6L7IAHW1H1BYV,sunflower,NA,yes,Please label the pictures below.,NA,NA,32,NA,Enjoyable,NA,warmup/dandelion.jpg,flowers,graduated_college,NA,NA,A1KA64FR47O9FS,English,male,NA,flowers,NA,2,1567790957659,2,This is a ,1,These are both,sunflower,NA,NA,warmup1
474,NA,hummingbird,NA,Fri Sep 06 2019 13:29:17 GMT-0400 (Eastern Daylight Time),NA,12,warmup/eagle.jpg,hummingbird,This is a ,No,2,3GKAWYFRAPHU9VXYGDBSCPGW9UAPD7,birds,jennifer,NA,3A0EX8ZRN9CYQWP8J6L7IAHW1H1BYV,eagle,NA,yes,Please label the pictures below.,NA,NA,32,NA,Enjoyable,NA,warmup/colibri.jpg,birds,graduated_college,NA,NA,A1KA64FR47O9FS,English,male,NA,birds,NA,3,1567790957659,1,This is an ,1,These are both,eagle,NA,NA,warmup1
474,What do you think your friend meant?,NA,It is small relative to other ,Fri Sep 06 2019 13:29:17 GMT-0400 (Eastern Daylight Time),images/bird-parade-eagle.png,12,NA,NA,NA,No,2,3GKAWYFRAPHU9VXYGDBSCPGW9UAPD7,birds,jennifer,NA,3A0EX8ZRN9CYQWP8J6L7IAHW1H1BYV,NA,2,yes,"You and your friend see another member of the group <br />(not pictured), and your friend says: <br/><b>That one is small.</b>",predicative,NA,32,eagles,Enjoyable,1,NA,NA,graduated_college,small,NA,A1KA64FR47O9FS,English,male,,NA,You and your friend see the following:,1,1567790957659,NA,NA,1,NA,NA,NA,incongr,custom_main_text1
474,What do you think your friend meant?,NA,It is small relative to other ,Fri Sep 06 2019 13:29:17 GMT-0400 (Eastern Daylight Time),images/fish-parade-basic.png,12,NA,NA,NA,No,2,3GKAWYFRAPHU9VXYGDBSCPGW9UAPD7,fish,jennifer,NA,3A0EX8ZRN9CYQWP8J6L7IAHW1H1BYV,NA,0,yes,"You and your friend see another member of the group <br />(not pictured), and your friend says: <br/><b>That goldfish is small.</b>",predicative,NA,32,fishes,Enjoyable,0,NA,NA,graduated_college,small,NA,A1KA64FR47O9FS,English,male,,NA,You and your friend see the following:,2,1567790957659,NA,NA,1,NA,NA,NA,basic,custom_main_text1
474,What do you think your friend meant?,NA,It is small relative to other ,Fri Sep 06 2019 13:29:17 GMT-0400 (Eastern Daylight Time),images/flower-parade-basic.png,12,NA,NA,NA,No,2,3GKAWYFRAPHU9VXYGDBSCPGW9UAPD7,flowers,jennifer,NA,3A0EX8ZRN9CYQWP8J6L7IAHW1H1BYV,NA,0,yes,"You and your friend see another member of the group <br />(not pictured), and your friend says: <br/><b>That one is small.</b>",predicative,NA,32,flowers,Enjoyable,1,NA,NA,graduated_college,small,NA,A1KA64FR47O9FS,English,male,,NA,You and your friend see the following:,3,1567790957659,NA,NA,1,NA,NA,NA,basic,custom_main_text1
474,NA,Chihuahua,NA,Fri Sep 06 2019 13:29:17 GMT-0400 (Eastern Daylight Time),NA,12,warmup/doberman.png,chihuahua,This is a ,No,2,3GKAWYFRAPHU9VXYGDBSCPGW9UAPD7,dogs,jennifer,NA,3A0EX8ZRN9CYQWP8J6L7IAHW1H1BYV,doberman,NA,yes,Please label the pictures below.,NA,NA,32,NA,Enjoyable,NA,warmup/chihuahua.jpg,dogs,graduated_college,NA,NA,A1KA64FR47O9FS,English,male,NA,dogs,NA,1,1567790957659,1,This is a ,1,These are both,Doberman,NA,NA,warmup2
474,NA,sequoia,NA,Fri Sep 06 2019 13:29:17 GMT-0400 (Eastern Daylight Time),NA,12,warmup/bonsai.jpg,redwood or sequoia (choose one),This is a ,No,2,3GKAWYFRAPHU9VXYGDBSCPGW9UAPD7,trees,jennifer,NA,3A0EX8ZRN9CYQWP8J6L7IAHW1H1BYV,bonsai,NA,yes,Please label the pictures below.,NA,NA,32,NA,Enjoyable,NA,warmup/sequoia.png,trees,graduated_college,NA,NA,A1KA64FR47O9FS,English,male,NA,trees,NA,2,1567790957659,1,This is a ,1,These are both,bonsai,NA,NA,warmup2
474,NA,pug,NA,Fri Sep 06 2019 13:29:17 GMT-0400 (Eastern Daylight Time),NA,12,warmup/great-dane.jpg,pug,This is a ,No,2,3GKAWYFRAPHU9VXYGDBSCPGW9UAPD7,dogs,jennifer,NA,3A0EX8ZRN9CYQWP8J6L7IAHW1H1BYV,great dane,NA,yes,Please label the pictures below.,NA,NA,32,NA,Enjoyable,NA,warmup/pug.jpg,dogs,graduated_college,NA,NA,A1KA64FR47O9FS,English,male,NA,dogs,NA,3,1567790957659,1,This is a ,1,These are both,great dane,NA,NA,warmup2
474,What do you think your friend meant?,NA,It is big relative to other ,Fri Sep 06 2019 13:29:17 GMT-0400 (Eastern Daylight Time),images/tree-parade-basic.png,12,NA,NA,NA,No,2,3GKAWYFRAPHU9VXYGDBSCPGW9UAPD7,trees,jennifer,NA,3A0EX8ZRN9CYQWP8J6L7IAHW1H1BYV,NA,0,yes,"You and your friend see another member of the group <br />(not pictured), and your friend says: <br/><b>That redwood is big.</b>",predicative,NA,32,trees,Enjoyable,0,NA,NA,graduated_college,big,NA,A1KA64FR47O9FS,English,male,,NA,You and your friend see the following:,1,1567790957659,NA,NA,1,NA,NA,NA,basic,custom_main_text2
474,What do you think your friend meant?,NA,It is small relative to other ,Fri Sep 06 2019 13:29:17 GMT-0400 (Eastern Daylight Time),images/dog-parade-chihuahua.png,12,NA,NA,NA,No,2,3GKAWYFRAPHU9VXYGDBSCPGW9UAPD7,dogs1,jennifer,NA,3A0EX8ZRN9CYQWP8J6L7IAHW1H1BYV,NA,1,yes,"You and your friend see another member of the group <br />(not pictured), and your friend says: <br/><b>That one is small.</b>",predicative,NA,32,chihuahuas,Enjoyable,1,NA,NA,graduated_college,small,NA,A1KA64FR47O9FS,English,male,,NA,You and your friend see the following:,2,1567790957659,NA,NA,1,NA,NA,NA,congr,custom_main_text2
474,What do you think your friend meant?,NA,It is small relative to other ,Fri Sep 06 2019 13:29:17 GMT-0400 (Eastern Daylight Time),images/dog-parade-great-dane.png,12,NA,NA,NA,No,2,3GKAWYFRAPHU9VXYGDBSCPGW9UAPD7,dogs2,jennifer,NA,3A0EX8ZRN9CYQWP8J6L7IAHW1H1BYV,NA,2,yes,"You and your friend see another member of the group <br />(not pictured), and your friend says: <br/><b>That great dane is small.</b>",predicative,NA,32,dogs,Enjoyable,0,NA,NA,graduated_college,small,NA,A1KA64FR47O9FS,English,male,,NA,You and your friend see the following:,3,1567790957659,NA,NA,1,NA,NA,NA,incongr,custom_main_text2
473,<i>What do you think Speaker A meant? </i>,NA,The Empire State Building is tall relative to other ,Fri Sep 06 2019 12:29:06 GMT-0500 (Central Daylight Time),NA,12,NA,NA,NA,,2,3I7KR83SNA1HVEN1R51IUCB7OZQ9KA,NA,barbara ,1,30OG32W0SVZ2L0XEMVEM22PA0UAEN8,NA,NA,yes,NA,NA,"<b> Speaker A: ""The Empire State Building is tall.""</b>",22,buildings,,NA,NA,NA,graduated_high_school,NA,comp_class_warmup,A29AKJXQ248KNK,English,male,NA,NA,In the main trials you will be asked to rephrase something a person said. The utterance will contain a word that is <i>relative</i> and your task is to figure out what it is relative to. <br /> <br /> For example: <br /><br />,1,1567790946789,1,NA,1.20,NA,NA,"buildings, scyscrapers, houses, constructions (choose one)",NA,comp_class_warmup
473,NA,chihuhua,NA,Fri Sep 06 2019 12:29:06 GMT-0500 (Central Daylight Time),NA,12,warmup/doberman.png,chihuahua,This is a ,,2,3I7KR83SNA1HVEN1R51IUCB7OZQ9KA,dogs,barbara ,NA,30OG32W0SVZ2L0XEMVEM22PA0UAEN8,doberman,NA,yes,Please label the pictures below.,NA,NA,22,NA,,NA,warmup/chihuahua.jpg,dogs,graduated_high_school,NA,NA,A29AKJXQ248KNK,English,male,NA,dogs,NA,1,1567790946789,1,This is a ,1.20,These are both,doberman,NA,NA,warmup1
473,NA,chihuhua,NA,Fri Sep 06 2019 12:29:06 GMT-0500 (Central Daylight Time),NA,12,warmup/doberman.png,chihuahua,This is a ,,2,3I7KR83SNA1HVEN1R51IUCB7OZQ9KA,dogs,barbara ,NA,30OG32W0SVZ2L0XEMVEM22PA0UAEN8,doberman,NA,yes,Please label the pictures below.,NA,NA,22,NA,,NA,warmup/chihuahua.jpg,dogs,graduated_high_school,NA,NA,A29AKJXQ248KNK,English,male,NA,dogs,NA,1,1567790946789,2,This is a ,1.20,These are both,doberman,NA,NA,warmup1
473,NA,chihuhua,NA,Fri Sep 06 2019 12:29:06 GMT-0500 (Central Daylight Time),NA,12,warmup/doberman.png,chihuahua,This is a ,,2,3I7KR83SNA1HVEN1R51IUCB7OZQ9KA,dogs,barbara ,NA,30OG32W0SVZ2L0XEMVEM22PA0UAEN8,doberman,NA,yes,Please label the pictures below.,NA,NA,22,NA,,NA,warmup/chihuahua.jpg,dogs,graduated_high_school,NA,NA,A29AKJXQ248KNK,English,male,NA,dogs,NA,1,1567790946789,3,This is a ,1.20,These are both,doberman,NA,NA,warmup1
473,NA,chihuhua,NA,Fri Sep 06 2019 12:29:06 GMT-0500 (Central Daylight Time),NA,12,warmup/doberman.png,chihuahua,This is a ,,2,3I7KR83SNA1HVEN1R51IUCB7OZQ9KA,dogs,barbara ,NA,30OG32W0SVZ2L0XEMVEM22PA0UAEN8,doberman,NA,yes,Please label the pictures below.,NA,NA,22,NA,,NA,warmup/chihuahua.jpg,dogs,graduated_high_school,NA,NA,A29AKJXQ248KNK,English,male,NA,dogs,NA,1,1567790946789,4,This is a ,1.20,These are both,doberman,NA,NA,warmup1
473,NA,chihuhua,NA,Fri Sep 06 2019 12:29:06 GMT-0500 (Central Daylight Time),NA,12,warmup/doberman.png,chihuahua,This is a ,,2,3I7KR83SNA1HVEN1R51IUCB7OZQ9KA,dogs,barbara ,NA,30OG32W0SVZ2L0XEMVEM22PA0UAEN8,doberman,NA,yes,Please label the pictures below.,NA,NA,22,NA,,NA,warmup/chihuahua.jpg,dogs,graduated_high_school,NA,NA,A29AKJXQ248KNK,English,male,NA,dogs,NA,1,1567790946789,5,This is a ,1.20,These are both,doberman,NA,NA,warmup1
473,NA,chihuahua,NA,Fri Sep 06 2019 12:29:06 GMT-0500 (Central Daylight Time),NA,12,warmup/doberman.png,chihuahua,This is a ,,2,3I7KR83SNA1HVEN1R51IUCB7OZQ9KA,dogs,barbara ,NA,30OG32W0SVZ2L0XEMVEM22PA0UAEN8,doberman,NA,yes,Please label the pictures below.,NA,NA,22,NA,,NA,warmup/chihuahua.jpg,dogs,graduated_high_school,NA,NA,A29AKJXQ248KNK,English,male,NA,dogs,NA,1,1567790946789,6,This is a ,1.20,These are both,doberman,NA,NA,warmup1
473,NA,sunflower,NA,Fri Sep 06 2019 12:29:06 GMT-0500 (Central Daylight Time),NA,12,warmup/sunflower.png,dandelion,This is a ,,2,3I7KR83SNA1HVEN1R51IUCB7OZQ9KA,flowers,barbara ,NA,30OG32W0SVZ2L0XEMVEM22PA0UAEN8,sunflower,NA,yes,Please label the pictures below.,NA,NA,22,NA,,NA,warmup/dandelion.jpg,flowers,graduated_high_school,NA,NA,A29AKJXQ248KNK,English,male,NA,flowers,NA,2,1567790946789,1,This is a ,1.20,These are both,sunflower,NA,NA,warmup1
473,NA,dandlion,NA,Fri Sep 06 2019 12:29:06 GMT-0500 (Central Daylight Time),NA,12,warmup/sunflower.png,dandelion,This is a ,,2,3I7KR83SNA1HVEN1R51IUCB7OZQ9KA,flowers,barbara ,NA,30OG32W0SVZ2L0XEMVEM22PA0UAEN8,sunflower,NA,yes,Please label the pictures below.,NA,NA,22,NA,,NA,warmup/dandelion.jpg,flowers,graduated_high_school,NA,NA,A29AKJXQ248KNK,English,male,NA,flowers,NA,2,1567790946789,2,This is a ,1.20,These are both,sunflower,NA,NA,warmup1
473,NA,dandelion,NA,Fri Sep 06 2019 12:29:06 GMT-0500 (Central Daylight Time),NA,12,warmup/sunflower.png,dandelion,This is a ,,2,3I7KR83SNA1HVEN1R51IUCB7OZQ9KA,flowers,barbara ,NA,30OG32W0SVZ2L0XEMVEM22PA0UAEN8,sunflower,NA,yes,Please label the pictures below.,NA,NA,22,NA,,NA,warmup/dandelion.jpg,flowers,graduated_high_school,NA,NA,A29AKJXQ248KNK,English,male,NA,flowers,NA,2,1567790946789,3,This is a ,1.20,These are both,sunflower,NA,NA,warmup1
473,NA,hummingbird,NA,Fri Sep 06 2019 12:29:06 GMT-0500 (Central Daylight Time),NA,12,warmup/eagle.jpg,hummingbird,This is a ,,2,3I7KR83SNA1HVEN1R51IUCB7OZQ9KA,birds,barbara ,NA,30OG32W0SVZ2L0XEMVEM22PA0UAEN8,eagle,NA,yes,Please label the pictures below.,NA,NA,22,NA,,NA,warmup/colibri.jpg,birds,graduated_high_school,NA,NA,A29AKJXQ248KNK,English,male,NA,birds,NA,3,1567790946789,1,This is an ,1.20,These are both,eagle,NA,NA,warmup1
473,What do you think your friend meant?,NA,It is big relative to other ,Fri Sep 06 2019 12:29:06 GMT-0500 (Central Daylight Time),images/dog-parade-basic.png,12,NA,NA,NA,,2,3I7KR83SNA1HVEN1R51IUCB7OZQ9KA,dogs1,barbara ,NA,30OG32W0SVZ2L0XEMVEM22PA0UAEN8,NA,0,yes,"You and your friend see another member of the group <br />(not pictured), and your friend says: <br/><b>That doberman is big.</b>",predicative,NA,22,dogs,,0,NA,NA,graduated_high_school,big,NA,A29AKJXQ248KNK,English,male,,NA,You and your friend see the following:,1,1567790946789,NA,NA,1.20,NA,NA,NA,basic,custom_main_text1
473,What do you think your friend meant?,NA,It is big relative to other ,Fri Sep 06 2019 12:29:06 GMT-0500 (Central Daylight Time),images/flower-parade-dandelion.png,12,NA,NA,NA,,2,3I7KR83SNA1HVEN1R51IUCB7OZQ9KA,flowers,barbara ,NA,30OG32W0SVZ2L0XEMVEM22PA0UAEN8,NA,2,yes,"You and your friend see another member of the group <br />(not pictured), and your friend says: <br/><b>That one is big.</b>",predicative,NA,22,flowers,,1,NA,NA,graduated_high_school,big,NA,A29AKJXQ248KNK,English,male,,NA,You and your friend see the following:,2,1567790946789,NA,NA,1.20,NA,NA,NA,incongr,custom_main_text1
473,What do you think your friend meant?,NA,It is big relative to other ,Fri Sep 06 2019 12:29:06 GMT-0500 (Central Daylight Time),images/bird-parade-eagle.png,12,NA,NA,NA,,2,3I7KR83SNA1HVEN1R51IUCB7OZQ9KA,birds,barbara ,NA,30OG32W0SVZ2L0XEMVEM22PA0UAEN8,NA,1,yes,"You and your friend see another member of the group <br />(not pictured), and your friend says: <br/><b>That eagle is big.</b>",predicative,NA,22,EAGLES,,0,NA,NA,graduated_high_school,big,NA,A29AKJXQ248KNK,English,male,,NA,You and your friend see the following:,3,1567790946789,NA,NA,1.20,NA,NA,NA,congr,custom_main_text1
473,NA,bulldog,NA,Fri Sep 06 2019 12:29:06 GMT-0500 (Central Daylight Time),NA,12,warmup/great-dane.jpg,pug,This is a ,,2,3I7KR83SNA1HVEN1R51IUCB7OZQ9KA,dogs,barbara ,NA,30OG32W0SVZ2L0XEMVEM22PA0UAEN8,great dane,NA,yes,Please label the pictures below.,NA,NA,22,NA,,NA,warmup/pug.jpg,dogs,graduated_high_school,NA,NA,A29AKJXQ248KNK,English,male,NA,dogs,NA,1,1567790946789,1,This is a ,1.20,These are both,greyhound,NA,NA,warmup2
473,NA,pug,NA,Fri Sep 06 2019 12:29:06 GMT-0500 (Central Daylight Time),NA,12,warmup/great-dane.jpg,pug,This is a ,,2,3I7KR83SNA1HVEN1R51IUCB7OZQ9KA,dogs,barbara ,NA,30OG32W0SVZ2L0XEMVEM22PA0UAEN8,great dane,NA,yes,Please label the pictures below.,NA,NA,22,NA,,NA,warmup/pug.jpg,dogs,graduated_high_school,NA,NA,A29AKJXQ248KNK,English,male,NA,dogs,NA,1,1567790946789,2,This is a ,1.20,These are both,great dane,NA,NA,warmup2
473,NA,swordfish,NA,Fri Sep 06 2019 12:29:06 GMT-0500 (Central Daylight Time),NA,12,warmup/goldfish.png,swordfish,This is a ,,2,3I7KR83SNA1HVEN1R51IUCB7OZQ9KA,fish,barbara ,NA,30OG32W0SVZ2L0XEMVEM22PA0UAEN8,goldfish,NA,yes,Please label the pictures below.,NA,NA,22,NA,,NA,warmup/swordfish.jpg,fosh,graduated_high_school,NA,NA,A29AKJXQ248KNK,English,male,NA,fish,NA,2,1567790946789,1,This is a ,1.20,These are both,nemo,NA,NA,warmup2
473,NA,swordfish,NA,Fri Sep 06 2019 12:29:06 GMT-0500 (Central Daylight Time),NA,12,warmup/goldfish.png,swordfish,This is a ,,2,3I7KR83SNA1HVEN1R51IUCB7OZQ9KA,fish,barbara ,NA,30OG32W0SVZ2L0XEMVEM22PA0UAEN8,goldfish,NA,yes,Please label the pictures below.,NA,NA,22,NA,,NA,warmup/swordfish.jpg,fish,graduated_high_school,NA,NA,A29AKJXQ248KNK,English,male,NA,fish,NA,2,1567790946789,2,This is a ,1.20,These are both,goldfish,NA,NA,warmup2
473,NA,tree,NA,Fri Sep 06 2019 12:29:06 GMT-0500 (Central Daylight Time),NA,12,warmup/bonsai.jpg,redwood or sequoia (choose one),This is a ,,2,3I7KR83SNA1HVEN1R51IUCB7OZQ9KA,trees,barbara ,NA,30OG32W0SVZ2L0XEMVEM22PA0UAEN8,bonsai,NA,yes,Please label the pictures below.,NA,NA,22,NA,,NA,warmup/sequoia.png,trees,graduated_high_school,NA,NA,A29AKJXQ248KNK,English,male,NA,trees,NA,3,1567790946789,1,This is a ,1.20,These are both,plant,NA,NA,warmup2
473,NA,redwood,NA,Fri Sep 06 2019 12:29:06 GMT-0500 (Central Daylight Time),NA,12,warmup/bonsai.jpg,redwood or sequoia (choose one),This is a ,,2,3I7KR83SNA1HVEN1R51IUCB7OZQ9KA,trees,barbara ,NA,30OG32W0SVZ2L0XEMVEM22PA0UAEN8,bonsai,NA,yes,Please label the pictures below.,NA,NA,22,NA,,NA,warmup/sequoia.png,trees,graduated_high_school,NA,NA,A29AKJXQ248KNK,English,male,NA,trees,NA,3,1567790946789,2,This is a ,1.20,These are both,plantbonsai,NA,NA,warmup2
473,NA,redwood,NA,Fri Sep 06 2019 12:29:06 GMT-0500 (Central Daylight Time),NA,12,warmup/bonsai.jpg,redwood or sequoia (choose one),This is a ,,2,3I7KR83SNA1HVEN1R51IUCB7OZQ9KA,trees,barbara ,NA,30OG32W0SVZ2L0XEMVEM22PA0UAEN8,bonsai,NA,yes,Please label the pictures below.,NA,NA,22,NA,,NA,warmup/sequoia.png,trees,graduated_high_school,NA,NA,A29AKJXQ248KNK,English,male,NA,trees,NA,3,1567790946789,3,This is a ,1.20,These are both,bonsai,NA,NA,warmup2
