submission_id,question,response1,sentence_left,startDate,context_picture,experiment_id,picture2,correct1,question1,problems,enjoyment,hit_id,item,botresponse,trials,assignment_id,correct2,pic_spec,understand,text,condition,sentence,age,response,comments,ref_spec,picture1,response3,education,target_size,name,worker_id,languages,sex,RT,correct3,context,trial_number,startTime,attempts,question3,fairprice,question2,response2,correct,adj_cond,trial_name
491,<i>What do you think Speaker A meant? </i>,NA,The Empire State Building is tall relative to other ,Fri Sep 06 2019 14:10:26 GMT-0400 (Eastern Daylight Time),NA,13,NA,NA,NA,,1,3W1K7D6QSB5V821KPQIO8XUAG86BZ8,NA,jessica,1,39LOEL67OTTE8VUDR9871EVIKAL83N,NA,NA,yes,NA,NA,"<b> Speaker A: ""The Empire State Building is tall.""</b>",23,buildings,,NA,NA,NA,graduated_college,NA,comp_class_warmup,AMTTB8JUWRRM7,English,female,NA,NA,In the main trials you will be asked to rephrase something a person said. The utterance will contain a word that is <i>relative</i> and your task is to figure out what it is relative to. <br /> <br /> For example: <br /><br />,1,1567793426562,1,NA,.8,NA,NA,"buildings, scyscrapers, houses, constructions (choose one)",NA,comp_class_warmup
491,NA,dandelion,NA,Fri Sep 06 2019 14:10:26 GMT-0400 (Eastern Daylight Time),NA,13,warmup/sunflower.png,dandelion,This is a ,,1,3W1K7D6QSB5V821KPQIO8XUAG86BZ8,flowers,jessica,NA,39LOEL67OTTE8VUDR9871EVIKAL83N,sunflower,NA,yes,Please label the pictures below.,NA,NA,23,NA,,NA,warmup/dandelion.jpg,flowers,graduated_college,NA,NA,AMTTB8JUWRRM7,English,female,NA,flowers,NA,1,1567793426562,1,This is a ,.8,These are both,sunflower,NA,NA,warmup1
491,NA,swordfish,NA,Fri Sep 06 2019 14:10:26 GMT-0400 (Eastern Daylight Time),NA,13,warmup/goldfish.png,swordfish,This is a ,,1,3W1K7D6QSB5V821KPQIO8XUAG86BZ8,fish,jessica,NA,39LOEL67OTTE8VUDR9871EVIKAL83N,goldfish,NA,yes,Please label the pictures below.,NA,NA,23,NA,,NA,warmup/swordfish.jpg,fish,graduated_college,NA,NA,AMTTB8JUWRRM7,English,female,NA,fish,NA,2,1567793426562,1,This is a ,.8,These are both,goldfish,NA,NA,warmup1
491,NA,Chihuahua,NA,Fri Sep 06 2019 14:10:26 GMT-0400 (Eastern Daylight Time),NA,13,warmup/doberman.png,chihuahua,This is a ,,1,3W1K7D6QSB5V821KPQIO8XUAG86BZ8,dogs,jessica,NA,39LOEL67OTTE8VUDR9871EVIKAL83N,doberman,NA,yes,Please label the pictures below.,NA,NA,23,NA,,NA,warmup/chihuahua.jpg,dogs,graduated_college,NA,NA,AMTTB8JUWRRM7,English,female,NA,dogs,NA,3,1567793426562,1,This is a ,.8,These are both,doberman,NA,NA,warmup1
491,Please rephrase your friend's comment.,NA,It is small relative to other ,Fri Sep 06 2019 14:10:26 GMT-0400 (Eastern Daylight Time),images/fish-parade-goldfish.png,13,NA,NA,NA,,1,3W1K7D6QSB5V821KPQIO8XUAG86BZ8,fish,jessica,NA,39LOEL67OTTE8VUDR9871EVIKAL83N,NA,1,yes,"You and your friend see another member of the group <br /> (not pictured), and your friend says: <br/><b>That's a small goldfish.</b>",prenominal,NA,23,goldfish,,0,NA,NA,graduated_college,small,NA,AMTTB8JUWRRM7,English,female,,NA,You and your friend see the following:,1,1567793426562,NA,NA,.8,NA,NA,NA,congr,custom_main_text1
491,What do you think your friend meant?,NA,It is big relative to other ,Fri Sep 06 2019 14:10:26 GMT-0400 (Eastern Daylight Time),images/flower-parade-basic.png,13,NA,NA,NA,,1,3W1K7D6QSB5V821KPQIO8XUAG86BZ8,flowers,jessica,NA,39LOEL67OTTE8VUDR9871EVIKAL83N,NA,0,yes,"You and your friend see another member of the group <br /> (not pictured), and your friend says: <br/><b>That's a big sunflower.</b>",prenominal,NA,23,flowers,,0,NA,NA,graduated_college,big,NA,AMTTB8JUWRRM7,English,female,,NA,You and your friend see the following:,2,1567793426562,NA,NA,.8,NA,NA,NA,basic,custom_main_text1
491,What do you think your friend meant?,NA,It is small relative to other ,Fri Sep 06 2019 14:10:26 GMT-0400 (Eastern Daylight Time),images/dog-parade-doberman.png,13,NA,NA,NA,,1,3W1K7D6QSB5V821KPQIO8XUAG86BZ8,dogs1,jessica,NA,39LOEL67OTTE8VUDR9871EVIKAL83N,NA,2,yes,"You and your friend see another member of the group <br /> (not pictured), and your friend says: <br/><b>That's a small one.</b>",prenominal,NA,23,dobermans,,1,NA,NA,graduated_college,small,NA,AMTTB8JUWRRM7,English,female,,NA,You and your friend see the following:,3,1567793426562,NA,NA,.8,NA,NA,NA,incongr,custom_main_text1
491,NA,hummingbird,NA,Fri Sep 06 2019 14:10:26 GMT-0400 (Eastern Daylight Time),NA,13,warmup/eagle.jpg,hummingbird,This is a ,,1,3W1K7D6QSB5V821KPQIO8XUAG86BZ8,birds,jessica,NA,39LOEL67OTTE8VUDR9871EVIKAL83N,eagle,NA,yes,Please label the pictures below.,NA,NA,23,NA,,NA,warmup/colibri.jpg,birds,graduated_college,NA,NA,AMTTB8JUWRRM7,English,female,NA,birds,NA,1,1567793426562,1,This is an ,.8,These are both,eagle,NA,NA,warmup2
491,NA,pug,NA,Fri Sep 06 2019 14:10:26 GMT-0400 (Eastern Daylight Time),NA,13,warmup/great-dane.jpg,pug,This is a ,,1,3W1K7D6QSB5V821KPQIO8XUAG86BZ8,dogs,jessica,NA,39LOEL67OTTE8VUDR9871EVIKAL83N,great dane,NA,yes,Please label the pictures below.,NA,NA,23,NA,,NA,warmup/pug.jpg,dog,graduated_college,NA,NA,AMTTB8JUWRRM7,English,female,NA,dogs,NA,2,1567793426562,1,This is a ,.8,These are both,greyhound,NA,NA,warmup2
491,NA,pug,NA,Fri Sep 06 2019 14:10:26 GMT-0400 (Eastern Daylight Time),NA,13,warmup/great-dane.jpg,pug,This is a ,,1,3W1K7D6QSB5V821KPQIO8XUAG86BZ8,dogs,jessica,NA,39LOEL67OTTE8VUDR9871EVIKAL83N,great dane,NA,yes,Please label the pictures below.,NA,NA,23,NA,,NA,warmup/pug.jpg,dogs,graduated_college,NA,NA,AMTTB8JUWRRM7,English,female,NA,dogs,NA,2,1567793426562,2,This is a ,.8,These are both,great dane,NA,NA,warmup2
491,NA,pine,NA,Fri Sep 06 2019 14:10:26 GMT-0400 (Eastern Daylight Time),NA,13,warmup/bonsai.jpg,redwood or sequoia (choose one),This is a ,,1,3W1K7D6QSB5V821KPQIO8XUAG86BZ8,trees,jessica,NA,39LOEL67OTTE8VUDR9871EVIKAL83N,bonsai,NA,yes,Please label the pictures below.,NA,NA,23,NA,,NA,warmup/sequoia.png,trees,graduated_college,NA,NA,AMTTB8JUWRRM7,English,female,NA,trees,NA,3,1567793426562,1,This is a ,.8,These are both,bonsai,NA,NA,warmup2
491,NA,sequoia,NA,Fri Sep 06 2019 14:10:26 GMT-0400 (Eastern Daylight Time),NA,13,warmup/bonsai.jpg,redwood or sequoia (choose one),This is a ,,1,3W1K7D6QSB5V821KPQIO8XUAG86BZ8,trees,jessica,NA,39LOEL67OTTE8VUDR9871EVIKAL83N,bonsai,NA,yes,Please label the pictures below.,NA,NA,23,NA,,NA,warmup/sequoia.png,trees,graduated_college,NA,NA,AMTTB8JUWRRM7,English,female,NA,trees,NA,3,1567793426562,2,This is a ,.8,These are both,bonsai,NA,NA,warmup2
491,What do you think your friend meant?,NA,It is big relative to other ,Fri Sep 06 2019 14:10:26 GMT-0400 (Eastern Daylight Time),images/bird-parade-basic.png,13,NA,NA,NA,,1,3W1K7D6QSB5V821KPQIO8XUAG86BZ8,birds,jessica,NA,39LOEL67OTTE8VUDR9871EVIKAL83N,NA,0,yes,"You and your friend see another member of the group <br /> (not pictured), and your friend says: <br/><b>That's a big eagle.</b>",prenominal,NA,23,birds,,0,NA,NA,graduated_college,big,NA,AMTTB8JUWRRM7,English,female,,NA,You and your friend see the following:,1,1567793426562,NA,NA,.8,NA,NA,NA,basic,custom_main_text2
491,What do you think your friend meant?,NA,It is small relative to other ,Fri Sep 06 2019 14:10:26 GMT-0400 (Eastern Daylight Time),images/tree-parade-bonsai.png,13,NA,NA,NA,,1,3W1K7D6QSB5V821KPQIO8XUAG86BZ8,trees,jessica,NA,39LOEL67OTTE8VUDR9871EVIKAL83N,NA,1,yes,"You and your friend see another member of the group <br /> (not pictured), and your friend says: <br/><b>That's a small one.</b>",prenominal,NA,23,bonsai,,1,NA,NA,graduated_college,small,NA,AMTTB8JUWRRM7,English,female,,NA,You and your friend see the following:,2,1567793426562,NA,NA,.8,NA,NA,NA,congr,custom_main_text2
491,What do you think your friend meant?,NA,It is small relative to other ,Fri Sep 06 2019 14:10:26 GMT-0400 (Eastern Daylight Time),images/dog-parade-basic2.png,13,NA,NA,NA,,1,3W1K7D6QSB5V821KPQIO8XUAG86BZ8,dogs2,jessica,NA,39LOEL67OTTE8VUDR9871EVIKAL83N,NA,0,yes,"You and your friend see another member of the group <br /> (not pictured), and your friend says: <br/><b>That's a small one.</b>",prenominal,NA,23,dogs,,1,NA,NA,graduated_college,small,NA,AMTTB8JUWRRM7,English,female,,NA,You and your friend see the following:,3,1567793426562,NA,NA,.8,NA,NA,NA,basic,custom_main_text2
489,<i>What do you think Speaker A meant? </i>,NA,The Empire State Building is tall relative to other ,Fri Sep 06 2019 10:52:08 GMT-0700 (Pacific Daylight Time),NA,13,NA,NA,NA,I had to reload because a picture didn't load......,2,3QE4DGPGBRZBWML6KJKCFC8YVQV4G6,NA,jennifer,1,3H7XDTSHKDFQS82JKRVXYOND6M4WG9,NA,NA,yes,NA,NA,"<b> Speaker A: ""The Empire State Building is tall.""</b>",64,buildings,,NA,NA,NA,some_college,NA,comp_class_warmup,AOS2PVHT2HYTL,English,female,NA,NA,In the main trials you will be asked to rephrase something a person said. The utterance will contain a word that is <i>relative</i> and your task is to figure out what it is relative to. <br /> <br /> For example: <br /><br />,1,1567792328184,1,NA,1.00,NA,NA,"buildings, scyscrapers, houses, constructions (choose one)",NA,comp_class_warmup
489,NA,hummingbird,NA,Fri Sep 06 2019 10:52:08 GMT-0700 (Pacific Daylight Time),NA,13,warmup/eagle.jpg,hummingbird,This is a ,I had to reload because a picture didn't load......,2,3QE4DGPGBRZBWML6KJKCFC8YVQV4G6,birds,jennifer,NA,3H7XDTSHKDFQS82JKRVXYOND6M4WG9,eagle,NA,yes,Please label the pictures below.,NA,NA,64,NA,,NA,warmup/colibri.jpg,birds,some_college,NA,NA,AOS2PVHT2HYTL,English,female,NA,birds,NA,1,1567792328184,1,This is an ,1.00,These are both,eagle,NA,NA,warmup1
489,NA,pine,NA,Fri Sep 06 2019 10:52:08 GMT-0700 (Pacific Daylight Time),NA,13,warmup/bonsai.jpg,redwood or sequoia (choose one),This is a ,I had to reload because a picture didn't load......,2,3QE4DGPGBRZBWML6KJKCFC8YVQV4G6,trees,jennifer,NA,3H7XDTSHKDFQS82JKRVXYOND6M4WG9,bonsai,NA,yes,Please label the pictures below.,NA,NA,64,NA,,NA,warmup/sequoia.png,trees,some_college,NA,NA,AOS2PVHT2HYTL,English,female,NA,trees,NA,2,1567792328184,1,This is a ,1.00,These are both,bonsai,NA,NA,warmup1
489,NA,sequoia,NA,Fri Sep 06 2019 10:52:08 GMT-0700 (Pacific Daylight Time),NA,13,warmup/bonsai.jpg,redwood or sequoia (choose one),This is a ,I had to reload because a picture didn't load......,2,3QE4DGPGBRZBWML6KJKCFC8YVQV4G6,trees,jennifer,NA,3H7XDTSHKDFQS82JKRVXYOND6M4WG9,bonsai,NA,yes,Please label the pictures below.,NA,NA,64,NA,,NA,warmup/sequoia.png,trees,some_college,NA,NA,AOS2PVHT2HYTL,English,female,NA,trees,NA,2,1567792328184,2,This is a ,1.00,These are both,bonsai,NA,NA,warmup1
489,NA,bulldog,NA,Fri Sep 06 2019 10:52:08 GMT-0700 (Pacific Daylight Time),NA,13,warmup/great-dane.jpg,pug,This is a ,I had to reload because a picture didn't load......,2,3QE4DGPGBRZBWML6KJKCFC8YVQV4G6,dogs,jennifer,NA,3H7XDTSHKDFQS82JKRVXYOND6M4WG9,great dane,NA,yes,Please label the pictures below.,NA,NA,64,NA,,NA,warmup/pug.jpg,dogs,some_college,NA,NA,AOS2PVHT2HYTL,English,female,NA,dogs,NA,3,1567792328184,1,This is a ,1.00,These are both,great dane,NA,NA,warmup1
489,NA,pug,NA,Fri Sep 06 2019 10:52:08 GMT-0700 (Pacific Daylight Time),NA,13,warmup/great-dane.jpg,pug,This is a ,I had to reload because a picture didn't load......,2,3QE4DGPGBRZBWML6KJKCFC8YVQV4G6,dogs,jennifer,NA,3H7XDTSHKDFQS82JKRVXYOND6M4WG9,great dane,NA,yes,Please label the pictures below.,NA,NA,64,NA,,NA,warmup/pug.jpg,dogs,some_college,NA,NA,AOS2PVHT2HYTL,English,female,NA,dogs,NA,3,1567792328184,2,This is a ,1.00,These are both,great dane,NA,NA,warmup1
489,What do you think your friend meant?,NA,It is small relative to other ,Fri Sep 06 2019 10:52:08 GMT-0700 (Pacific Daylight Time),images/dog-parade-great-dane.png,13,NA,NA,NA,I had to reload because a picture didn't load......,2,3QE4DGPGBRZBWML6KJKCFC8YVQV4G6,dogs2,jennifer,NA,3H7XDTSHKDFQS82JKRVXYOND6M4WG9,NA,2,yes,"You and your friend see another member of the group <br /> (not pictured), and your friend says: <br/><b>That's a small great dane.</b>",prenominal,NA,64,great danes,,0,NA,NA,some_college,small,NA,AOS2PVHT2HYTL,English,female,,NA,You and your friend see the following:,1,1567792328184,NA,NA,1.00,NA,NA,NA,incongr,custom_main_text1
489,What do you think your friend meant?,NA,It is small relative to other ,Fri Sep 06 2019 10:52:08 GMT-0700 (Pacific Daylight Time),images/bird-parade-hummingbird.png,13,NA,NA,NA,I had to reload because a picture didn't load......,2,3QE4DGPGBRZBWML6KJKCFC8YVQV4G6,birds,jennifer,NA,3H7XDTSHKDFQS82JKRVXYOND6M4WG9,NA,1,yes,"You and your friend see another member of the group <br /> (not pictured), and your friend says: <br/><b>That's a small one.</b>",prenominal,NA,64,hummingbirds,,1,NA,NA,some_college,small,NA,AOS2PVHT2HYTL,English,female,,NA,You and your friend see the following:,2,1567792328184,NA,NA,1.00,NA,NA,NA,congr,custom_main_text1
489,What do you think your friend meant?,NA,It is small relative to other ,Fri Sep 06 2019 10:52:08 GMT-0700 (Pacific Daylight Time),images/tree-parade-basic.png,13,NA,NA,NA,I had to reload because a picture didn't load......,2,3QE4DGPGBRZBWML6KJKCFC8YVQV4G6,trees,jennifer,NA,3H7XDTSHKDFQS82JKRVXYOND6M4WG9,NA,0,yes,"You and your friend see another member of the group <br /> (not pictured), and your friend says: <br/><b>That's a small bonsai.</b>",prenominal,NA,64,bonsais,,0,NA,NA,some_college,small,NA,AOS2PVHT2HYTL,English,female,,NA,You and your friend see the following:,3,1567792328184,NA,NA,1.00,NA,NA,NA,basic,custom_main_text1
489,NA,shark,NA,Fri Sep 06 2019 10:52:08 GMT-0700 (Pacific Daylight Time),NA,13,warmup/goldfish.png,swordfish,This is a ,I had to reload because a picture didn't load......,2,3QE4DGPGBRZBWML6KJKCFC8YVQV4G6,fish,jennifer,NA,3H7XDTSHKDFQS82JKRVXYOND6M4WG9,goldfish,NA,yes,Please label the pictures below.,NA,NA,64,NA,,NA,warmup/swordfish.jpg,fish,some_college,NA,NA,AOS2PVHT2HYTL,English,female,NA,fish,NA,1,1567792328184,1,This is a ,1.00,These are both,goldfish,NA,NA,warmup2
489,NA,swordfish,NA,Fri Sep 06 2019 10:52:08 GMT-0700 (Pacific Daylight Time),NA,13,warmup/goldfish.png,swordfish,This is a ,I had to reload because a picture didn't load......,2,3QE4DGPGBRZBWML6KJKCFC8YVQV4G6,fish,jennifer,NA,3H7XDTSHKDFQS82JKRVXYOND6M4WG9,goldfish,NA,yes,Please label the pictures below.,NA,NA,64,NA,,NA,warmup/swordfish.jpg,fish,some_college,NA,NA,AOS2PVHT2HYTL,English,female,NA,fish,NA,1,1567792328184,2,This is a ,1.00,These are both,goldfish,NA,NA,warmup2
489,NA,dandelion,NA,Fri Sep 06 2019 10:52:08 GMT-0700 (Pacific Daylight Time),NA,13,warmup/sunflower.png,dandelion,This is a ,I had to reload because a picture didn't load......,2,3QE4DGPGBRZBWML6KJKCFC8YVQV4G6,flowers,jennifer,NA,3H7XDTSHKDFQS82JKRVXYOND6M4WG9,sunflower,NA,yes,Please label the pictures below.,NA,NA,64,NA,,NA,warmup/dandelion.jpg,flowers,some_college,NA,NA,AOS2PVHT2HYTL,English,female,NA,flowers,NA,2,1567792328184,1,This is a ,1.00,These are both,sunflower,NA,NA,warmup2
489,NA,chihuahua,NA,Fri Sep 06 2019 10:52:08 GMT-0700 (Pacific Daylight Time),NA,13,warmup/doberman.png,chihuahua,This is a ,I had to reload because a picture didn't load......,2,3QE4DGPGBRZBWML6KJKCFC8YVQV4G6,dogs,jennifer,NA,3H7XDTSHKDFQS82JKRVXYOND6M4WG9,doberman,NA,yes,Please label the pictures below.,NA,NA,64,NA,,NA,warmup/chihuahua.jpg,dogs,some_college,NA,NA,AOS2PVHT2HYTL,English,female,NA,dogs,NA,3,1567792328184,1,This is a ,1.00,These are both,doberman,NA,NA,warmup2
489,What do you think your friend meant?,NA,It is big relative to other ,Fri Sep 06 2019 10:52:08 GMT-0700 (Pacific Daylight Time),images/dog-parade-basic.png,13,NA,NA,NA,I had to reload because a picture didn't load......,2,3QE4DGPGBRZBWML6KJKCFC8YVQV4G6,dogs1,jennifer,NA,3H7XDTSHKDFQS82JKRVXYOND6M4WG9,NA,0,yes,"You and your friend see another member of the group <br /> (not pictured), and your friend says: <br/><b>That's a big doberman.</b>",prenominal,NA,64,dobermans,,0,NA,NA,some_college,big,NA,AOS2PVHT2HYTL,English,female,,NA,You and your friend see the following:,1,1567792328184,NA,NA,1.00,NA,NA,NA,basic,custom_main_text2
489,Please rephrase your friend's comment.,NA,It is big relative to other ,Fri Sep 06 2019 10:52:08 GMT-0700 (Pacific Daylight Time),images/fish-parade-basic.png,13,NA,NA,NA,I had to reload because a picture didn't load......,2,3QE4DGPGBRZBWML6KJKCFC8YVQV4G6,fish,jennifer,NA,3H7XDTSHKDFQS82JKRVXYOND6M4WG9,NA,0,yes,"You and your friend see another member of the group <br /> (not pictured), and your friend says: <br/><b>That's a big one.</b>",prenominal,NA,64,swordfish,,1,NA,NA,some_college,big,NA,AOS2PVHT2HYTL,English,female,,NA,You and your friend see the following:,2,1567792328184,NA,NA,1.00,NA,NA,NA,basic,custom_main_text2
489,What do you think your friend meant?,NA,It is big relative to other ,Fri Sep 06 2019 10:52:08 GMT-0700 (Pacific Daylight Time),images/flower-parade-dandelion.png,13,NA,NA,NA,I had to reload because a picture didn't load......,2,3QE4DGPGBRZBWML6KJKCFC8YVQV4G6,flowers,jennifer,NA,3H7XDTSHKDFQS82JKRVXYOND6M4WG9,NA,2,yes,"You and your friend see another member of the group <br /> (not pictured), and your friend says: <br/><b>That's a big one.</b>",prenominal,NA,64,dandelions,,1,NA,NA,some_college,big,NA,AOS2PVHT2HYTL,English,female,,NA,You and your friend see the following:,3,1567792328184,NA,NA,1.00,NA,NA,NA,incongr,custom_main_text2
487,<i>What do you think Speaker A meant? </i>,NA,The Empire State Building is tall relative to other ,Fri Sep 06 2019 12:42:13 GMT-0500 (Central Daylight Time),NA,13,NA,NA,NA,none.,2,3QE4DGPGBRZBWML6KJKCFC8YVQV4G6,NA,jennifer,1,3GU1KF0O4JP4HIX7SJPO5JOKXCYPBF,NA,NA,yes,NA,NA,"<b> Speaker A: ""The Empire State Building is tall.""</b>",48,buildings,,NA,NA,NA,some_college,NA,comp_class_warmup,A2XKVWHXJV0HWZ,english,female,NA,NA,In the main trials you will be asked to rephrase something a person said. The utterance will contain a word that is <i>relative</i> and your task is to figure out what it is relative to. <br /> <br /> For example: <br /><br />,1,1567791733365,1,NA,2.00,NA,NA,"buildings, scyscrapers, houses, constructions (choose one)",NA,comp_class_warmup
487,NA,tree,NA,Fri Sep 06 2019 12:42:13 GMT-0500 (Central Daylight Time),NA,13,warmup/bonsai.jpg,redwood or sequoia (choose one),This is a ,none.,2,3QE4DGPGBRZBWML6KJKCFC8YVQV4G6,trees,jennifer,NA,3GU1KF0O4JP4HIX7SJPO5JOKXCYPBF,bonsai,NA,yes,Please label the pictures below.,NA,NA,48,NA,,NA,warmup/sequoia.png,green,some_college,NA,NA,A2XKVWHXJV0HWZ,english,female,NA,trees,NA,1,1567791733365,1,This is a ,2.00,These are both,plant,NA,NA,warmup1
487,NA,tree,NA,Fri Sep 06 2019 12:42:13 GMT-0500 (Central Daylight Time),NA,13,warmup/bonsai.jpg,redwood or sequoia (choose one),This is a ,none.,2,3QE4DGPGBRZBWML6KJKCFC8YVQV4G6,trees,jennifer,NA,3GU1KF0O4JP4HIX7SJPO5JOKXCYPBF,bonsai,NA,yes,Please label the pictures below.,NA,NA,48,NA,,NA,warmup/sequoia.png,trees,some_college,NA,NA,A2XKVWHXJV0HWZ,english,female,NA,trees,NA,1,1567791733365,2,This is a ,2.00,These are both,plant,NA,NA,warmup1
487,NA,tree,NA,Fri Sep 06 2019 12:42:13 GMT-0500 (Central Daylight Time),NA,13,warmup/bonsai.jpg,redwood or sequoia (choose one),This is a ,none.,2,3QE4DGPGBRZBWML6KJKCFC8YVQV4G6,trees,jennifer,NA,3GU1KF0O4JP4HIX7SJPO5JOKXCYPBF,bonsai,NA,yes,Please label the pictures below.,NA,NA,48,NA,,NA,warmup/sequoia.png,trees,some_college,NA,NA,A2XKVWHXJV0HWZ,english,female,NA,trees,NA,1,1567791733365,3,This is a ,2.00,These are both,tree,NA,NA,warmup1
487,NA,tree,NA,Fri Sep 06 2019 12:42:13 GMT-0500 (Central Daylight Time),NA,13,warmup/bonsai.jpg,redwood or sequoia (choose one),This is a ,none.,2,3QE4DGPGBRZBWML6KJKCFC8YVQV4G6,trees,jennifer,NA,3GU1KF0O4JP4HIX7SJPO5JOKXCYPBF,bonsai,NA,yes,Please label the pictures below.,NA,NA,48,NA,,NA,warmup/sequoia.png,trees,some_college,NA,NA,A2XKVWHXJV0HWZ,english,female,NA,trees,NA,1,1567791733365,4,This is a ,2.00,These are both,tree,NA,NA,warmup1
487,NA,redwood,NA,Fri Sep 06 2019 12:42:13 GMT-0500 (Central Daylight Time),NA,13,warmup/bonsai.jpg,redwood or sequoia (choose one),This is a ,none.,2,3QE4DGPGBRZBWML6KJKCFC8YVQV4G6,trees,jennifer,NA,3GU1KF0O4JP4HIX7SJPO5JOKXCYPBF,bonsai,NA,yes,Please label the pictures below.,NA,NA,48,NA,,NA,warmup/sequoia.png,trees,some_college,NA,NA,A2XKVWHXJV0HWZ,english,female,NA,trees,NA,1,1567791733365,5,This is a ,2.00,These are both,bonsai,NA,NA,warmup1
487,NA,sun flower,NA,Fri Sep 06 2019 12:42:13 GMT-0500 (Central Daylight Time),NA,13,warmup/sunflower.png,dandelion,This is a ,none.,2,3QE4DGPGBRZBWML6KJKCFC8YVQV4G6,flowers,jennifer,NA,3GU1KF0O4JP4HIX7SJPO5JOKXCYPBF,sunflower,NA,yes,Please label the pictures below.,NA,NA,48,NA,,NA,warmup/dandelion.jpg,flowers,some_college,NA,NA,A2XKVWHXJV0HWZ,english,female,NA,flowers,NA,2,1567791733365,1,This is a ,2.00,These are both,sun flower,NA,NA,warmup1
487,NA,dandelion,NA,Fri Sep 06 2019 12:42:13 GMT-0500 (Central Daylight Time),NA,13,warmup/sunflower.png,dandelion,This is a ,none.,2,3QE4DGPGBRZBWML6KJKCFC8YVQV4G6,flowers,jennifer,NA,3GU1KF0O4JP4HIX7SJPO5JOKXCYPBF,sunflower,NA,yes,Please label the pictures below.,NA,NA,48,NA,,NA,warmup/dandelion.jpg,flowers,some_college,NA,NA,A2XKVWHXJV0HWZ,english,female,NA,flowers,NA,2,1567791733365,2,This is a ,2.00,These are both,sunflower,NA,NA,warmup1
487,NA,dog,NA,Fri Sep 06 2019 12:42:13 GMT-0500 (Central Daylight Time),NA,13,warmup/doberman.png,chihuahua,This is a ,none.,2,3QE4DGPGBRZBWML6KJKCFC8YVQV4G6,dogs,jennifer,NA,3GU1KF0O4JP4HIX7SJPO5JOKXCYPBF,doberman,NA,yes,Please label the pictures below.,NA,NA,48,NA,,NA,warmup/chihuahua.jpg,dogs,some_college,NA,NA,A2XKVWHXJV0HWZ,english,female,NA,dogs,NA,3,1567791733365,1,This is a ,2.00,These are both,dog,NA,NA,warmup1
487,NA,chihuahua,NA,Fri Sep 06 2019 12:42:13 GMT-0500 (Central Daylight Time),NA,13,warmup/doberman.png,chihuahua,This is a ,none.,2,3QE4DGPGBRZBWML6KJKCFC8YVQV4G6,dogs,jennifer,NA,3GU1KF0O4JP4HIX7SJPO5JOKXCYPBF,doberman,NA,yes,Please label the pictures below.,NA,NA,48,NA,,NA,warmup/chihuahua.jpg,dogs,some_college,NA,NA,A2XKVWHXJV0HWZ,english,female,NA,dogs,NA,3,1567791733365,2,This is a ,2.00,These are both,doberman,NA,NA,warmup1
487,What do you think your friend meant?,NA,It is small relative to other ,Fri Sep 06 2019 12:42:13 GMT-0500 (Central Daylight Time),images/flower-parade-dandelion.png,13,NA,NA,NA,none.,2,3QE4DGPGBRZBWML6KJKCFC8YVQV4G6,flowers,jennifer,NA,3GU1KF0O4JP4HIX7SJPO5JOKXCYPBF,NA,1,yes,"You and your friend see another member of the group <br /> (not pictured), and your friend says: <br/><b>That's a small one.</b>",prenominal,NA,48,flowers,,1,NA,NA,some_college,small,NA,A2XKVWHXJV0HWZ,english,female,,NA,You and your friend see the following:,1,1567791733365,NA,NA,2.00,NA,NA,NA,congr,custom_main_text1
487,What do you think your friend meant?,NA,It is big relative to other ,Fri Sep 06 2019 12:42:13 GMT-0500 (Central Daylight Time),images/dog-parade-doberman.png,13,NA,NA,NA,none.,2,3QE4DGPGBRZBWML6KJKCFC8YVQV4G6,dogs1,jennifer,NA,3GU1KF0O4JP4HIX7SJPO5JOKXCYPBF,NA,1,yes,"You and your friend see another member of the group <br /> (not pictured), and your friend says: <br/><b>That's a big one.</b>",prenominal,NA,48,doberman's,,1,NA,NA,some_college,big,NA,A2XKVWHXJV0HWZ,english,female,,NA,You and your friend see the following:,2,1567791733365,NA,NA,2.00,NA,NA,NA,congr,custom_main_text1
487,What do you think your friend meant?,NA,It is big relative to other ,Fri Sep 06 2019 12:42:13 GMT-0500 (Central Daylight Time),images/tree-parade-basic.png,13,NA,NA,NA,none.,2,3QE4DGPGBRZBWML6KJKCFC8YVQV4G6,trees,jennifer,NA,3GU1KF0O4JP4HIX7SJPO5JOKXCYPBF,NA,0,yes,"You and your friend see another member of the group <br /> (not pictured), and your friend says: <br/><b>That's a big one.</b>",prenominal,NA,48,tree's,,1,NA,NA,some_college,big,NA,A2XKVWHXJV0HWZ,english,female,,NA,You and your friend see the following:,3,1567791733365,NA,NA,2.00,NA,NA,NA,basic,custom_main_text1
487,NA,bull dog,NA,Fri Sep 06 2019 12:42:13 GMT-0500 (Central Daylight Time),NA,13,warmup/great-dane.jpg,pug,This is a ,none.,2,3QE4DGPGBRZBWML6KJKCFC8YVQV4G6,dogs,jennifer,NA,3GU1KF0O4JP4HIX7SJPO5JOKXCYPBF,great dane,NA,yes,Please label the pictures below.,NA,NA,48,NA,,NA,warmup/pug.jpg,dogs,some_college,NA,NA,A2XKVWHXJV0HWZ,english,female,NA,dogs,NA,1,1567791733365,1,This is a ,2.00,These are both,dog,NA,NA,warmup2
487,NA,pug,NA,Fri Sep 06 2019 12:42:13 GMT-0500 (Central Daylight Time),NA,13,warmup/great-dane.jpg,pug,This is a ,none.,2,3QE4DGPGBRZBWML6KJKCFC8YVQV4G6,dogs,jennifer,NA,3GU1KF0O4JP4HIX7SJPO5JOKXCYPBF,great dane,NA,yes,Please label the pictures below.,NA,NA,48,NA,,NA,warmup/pug.jpg,dogs,some_college,NA,NA,A2XKVWHXJV0HWZ,english,female,NA,dogs,NA,1,1567791733365,2,This is a ,2.00,These are both,great dane,NA,NA,warmup2
487,NA,humming bird,NA,Fri Sep 06 2019 12:42:13 GMT-0500 (Central Daylight Time),NA,13,warmup/eagle.jpg,hummingbird,This is a ,none.,2,3QE4DGPGBRZBWML6KJKCFC8YVQV4G6,birds,jennifer,NA,3GU1KF0O4JP4HIX7SJPO5JOKXCYPBF,eagle,NA,yes,Please label the pictures below.,NA,NA,48,NA,,NA,warmup/colibri.jpg,birds,some_college,NA,NA,A2XKVWHXJV0HWZ,english,female,NA,birds,NA,2,1567791733365,1,This is an ,2.00,These are both,eagle,NA,NA,warmup2
487,NA,hummingbird,NA,Fri Sep 06 2019 12:42:13 GMT-0500 (Central Daylight Time),NA,13,warmup/eagle.jpg,hummingbird,This is a ,none.,2,3QE4DGPGBRZBWML6KJKCFC8YVQV4G6,birds,jennifer,NA,3GU1KF0O4JP4HIX7SJPO5JOKXCYPBF,eagle,NA,yes,Please label the pictures below.,NA,NA,48,NA,,NA,warmup/colibri.jpg,birds,some_college,NA,NA,A2XKVWHXJV0HWZ,english,female,NA,birds,NA,2,1567791733365,2,This is an ,2.00,These are both,eagle,NA,NA,warmup2
487,NA,shark,NA,Fri Sep 06 2019 12:42:13 GMT-0500 (Central Daylight Time),NA,13,warmup/goldfish.png,swordfish,This is a ,none.,2,3QE4DGPGBRZBWML6KJKCFC8YVQV4G6,fish,jennifer,NA,3GU1KF0O4JP4HIX7SJPO5JOKXCYPBF,goldfish,NA,yes,Please label the pictures below.,NA,NA,48,NA,,NA,warmup/swordfish.jpg,fish,some_college,NA,NA,A2XKVWHXJV0HWZ,english,female,NA,fish,NA,3,1567791733365,1,This is a ,2.00,These are both,goldfish,NA,NA,warmup2
487,NA,swordfish,NA,Fri Sep 06 2019 12:42:13 GMT-0500 (Central Daylight Time),NA,13,warmup/goldfish.png,swordfish,This is a ,none.,2,3QE4DGPGBRZBWML6KJKCFC8YVQV4G6,fish,jennifer,NA,3GU1KF0O4JP4HIX7SJPO5JOKXCYPBF,goldfish,NA,yes,Please label the pictures below.,NA,NA,48,NA,,NA,warmup/swordfish.jpg,fish,some_college,NA,NA,A2XKVWHXJV0HWZ,english,female,NA,fish,NA,3,1567791733365,2,This is a ,2.00,These are both,goldfish,NA,NA,warmup2
487,What do you think your friend meant?,NA,It is small relative to other ,Fri Sep 06 2019 12:42:13 GMT-0500 (Central Daylight Time),images/dog-parade-basic2.png,13,NA,NA,NA,none.,2,3QE4DGPGBRZBWML6KJKCFC8YVQV4G6,dogs2,jennifer,NA,3GU1KF0O4JP4HIX7SJPO5JOKXCYPBF,NA,0,yes,"You and your friend see another member of the group <br /> (not pictured), and your friend says: <br/><b>That's a small pug.</b>",prenominal,NA,48,dogs,,0,NA,NA,some_college,small,NA,A2XKVWHXJV0HWZ,english,female,,NA,You and your friend see the following:,1,1567791733365,NA,NA,2.00,NA,NA,NA,basic,custom_main_text2
487,Please rephrase your friend's comment.,NA,It is small relative to other ,Fri Sep 06 2019 12:42:13 GMT-0500 (Central Daylight Time),images/fish-parade-swordfish.png,13,NA,NA,NA,none.,2,3QE4DGPGBRZBWML6KJKCFC8YVQV4G6,fish,jennifer,NA,3GU1KF0O4JP4HIX7SJPO5JOKXCYPBF,NA,2,yes,"You and your friend see another member of the group <br /> (not pictured), and your friend says: <br/><b>That's a small swordfish.</b>",prenominal,NA,48,fish,,0,NA,NA,some_college,small,NA,A2XKVWHXJV0HWZ,english,female,,NA,You and your friend see the following:,2,1567791733365,NA,NA,2.00,NA,NA,NA,incongr,custom_main_text2
487,What do you think your friend meant?,NA,It is small relative to other ,Fri Sep 06 2019 12:42:13 GMT-0500 (Central Daylight Time),images/bird-parade-basic.png,13,NA,NA,NA,none.,2,3QE4DGPGBRZBWML6KJKCFC8YVQV4G6,birds,jennifer,NA,3GU1KF0O4JP4HIX7SJPO5JOKXCYPBF,NA,0,yes,"You and your friend see another member of the group <br /> (not pictured), and your friend says: <br/><b>That's a small hummingbird.</b>",prenominal,NA,48,bird,,0,NA,NA,some_college,small,NA,A2XKVWHXJV0HWZ,english,female,,NA,You and your friend see the following:,3,1567791733365,NA,NA,2.00,NA,NA,NA,basic,custom_main_text2
486,<i>What do you think Speaker A meant? </i>,NA,The Empire State Building is tall relative to other ,Fri Sep 06 2019 20:42:54 GMT+0300 (East Africa Time),NA,13,NA,NA,NA,no,2,3W1K7D6QSB5V821KPQIO8XUAG86BZ8,NA,Patricia,1,34YB12FSQZCUNW85GPPAPQLM8KFMGX,NA,NA,yes,NA,NA,"<b> Speaker A: ""The Empire State Building is tall.""</b>",34,Buildings,,NA,NA,NA,graduated_college,NA,comp_class_warmup,A2UUKFTD0VUX2S,English,male,NA,NA,In the main trials you will be asked to rephrase something a person said. The utterance will contain a word that is <i>relative</i> and your task is to figure out what it is relative to. <br /> <br /> For example: <br /><br />,1,1567791774285,1,NA,1,NA,NA,"buildings, scyscrapers, houses, constructions (choose one)",NA,comp_class_warmup
486,NA,sequoia,NA,Fri Sep 06 2019 20:42:54 GMT+0300 (East Africa Time),NA,13,warmup/bonsai.jpg,redwood or sequoia (choose one),This is a ,no,2,3W1K7D6QSB5V821KPQIO8XUAG86BZ8,trees,Patricia,NA,34YB12FSQZCUNW85GPPAPQLM8KFMGX,bonsai,NA,yes,Please label the pictures below.,NA,NA,34,NA,,NA,warmup/sequoia.png,trees,graduated_college,NA,NA,A2UUKFTD0VUX2S,English,male,NA,trees,NA,1,1567791774285,1,This is a ,1,These are both,Bonsai,NA,NA,warmup1
486,NA,hummingbird,NA,Fri Sep 06 2019 20:42:54 GMT+0300 (East Africa Time),NA,13,warmup/eagle.jpg,hummingbird,This is a ,no,2,3W1K7D6QSB5V821KPQIO8XUAG86BZ8,birds,Patricia,NA,34YB12FSQZCUNW85GPPAPQLM8KFMGX,eagle,NA,yes,Please label the pictures below.,NA,NA,34,NA,,NA,warmup/colibri.jpg,birds,graduated_college,NA,NA,A2UUKFTD0VUX2S,English,male,NA,birds,NA,2,1567791774285,1,This is an ,1,These are both,eagle,NA,NA,warmup1
486,NA,black marlin,NA,Fri Sep 06 2019 20:42:54 GMT+0300 (East Africa Time),NA,13,warmup/goldfish.png,swordfish,This is a ,no,2,3W1K7D6QSB5V821KPQIO8XUAG86BZ8,fish,Patricia,NA,34YB12FSQZCUNW85GPPAPQLM8KFMGX,goldfish,NA,yes,Please label the pictures below.,NA,NA,34,NA,,NA,warmup/swordfish.jpg,fish,graduated_college,NA,NA,A2UUKFTD0VUX2S,English,male,NA,fish,NA,3,1567791774285,1,This is a ,1,These are both,goldfish,NA,NA,warmup1
486,NA,swordfish,NA,Fri Sep 06 2019 20:42:54 GMT+0300 (East Africa Time),NA,13,warmup/goldfish.png,swordfish,This is a ,no,2,3W1K7D6QSB5V821KPQIO8XUAG86BZ8,fish,Patricia,NA,34YB12FSQZCUNW85GPPAPQLM8KFMGX,goldfish,NA,yes,Please label the pictures below.,NA,NA,34,NA,,NA,warmup/swordfish.jpg,fish,graduated_college,NA,NA,A2UUKFTD0VUX2S,English,male,NA,fish,NA,3,1567791774285,2,This is a ,1,These are both,goldfish,NA,NA,warmup1
486,What do you think your friend meant?,NA,It is small relative to other ,Fri Sep 06 2019 20:42:54 GMT+0300 (East Africa Time),images/bird-parade-hummingbird.png,13,NA,NA,NA,no,2,3W1K7D6QSB5V821KPQIO8XUAG86BZ8,birds,Patricia,NA,34YB12FSQZCUNW85GPPAPQLM8KFMGX,NA,1,yes,"You and your friend see another member of the group <br /> (not pictured), and your friend says: <br/><b>That's a small one.</b>",prenominal,NA,34,birds,,1,NA,NA,graduated_college,small,NA,A2UUKFTD0VUX2S,English,male,,NA,You and your friend see the following:,1,1567791774285,NA,NA,1,NA,NA,NA,congr,custom_main_text1
486,What do you think your friend meant?,NA,It is small relative to other ,Fri Sep 06 2019 20:42:54 GMT+0300 (East Africa Time),images/tree-parade-basic.png,13,NA,NA,NA,no,2,3W1K7D6QSB5V821KPQIO8XUAG86BZ8,trees,Patricia,NA,34YB12FSQZCUNW85GPPAPQLM8KFMGX,NA,0,yes,"You and your friend see another member of the group <br /> (not pictured), and your friend says: <br/><b>That's a small bonsai.</b>",prenominal,NA,34,trees,,0,NA,NA,graduated_college,small,NA,A2UUKFTD0VUX2S,English,male,,NA,You and your friend see the following:,2,1567791774285,NA,NA,1,NA,NA,NA,basic,custom_main_text1
486,Please rephrase your friend's comment.,NA,It is big relative to other ,Fri Sep 06 2019 20:42:54 GMT+0300 (East Africa Time),images/fish-parade-basic.png,13,NA,NA,NA,no,2,3W1K7D6QSB5V821KPQIO8XUAG86BZ8,fish,Patricia,NA,34YB12FSQZCUNW85GPPAPQLM8KFMGX,NA,0,yes,"You and your friend see another member of the group <br /> (not pictured), and your friend says: <br/><b>That's a big one.</b>",prenominal,NA,34,fishes,,1,NA,NA,graduated_college,big,NA,A2UUKFTD0VUX2S,English,male,,NA,You and your friend see the following:,3,1567791774285,NA,NA,1,NA,NA,NA,basic,custom_main_text1
486,NA,pug,NA,Fri Sep 06 2019 20:42:54 GMT+0300 (East Africa Time),NA,13,warmup/great-dane.jpg,pug,This is a ,no,2,3W1K7D6QSB5V821KPQIO8XUAG86BZ8,dogs,Patricia,NA,34YB12FSQZCUNW85GPPAPQLM8KFMGX,great dane,NA,yes,Please label the pictures below.,NA,NA,34,NA,,NA,warmup/pug.jpg,dogs,graduated_college,NA,NA,A2UUKFTD0VUX2S,English,male,NA,dogs,NA,1,1567791774285,1,This is a ,1,These are both,doberman,NA,NA,warmup2
486,NA,pug,NA,Fri Sep 06 2019 20:42:54 GMT+0300 (East Africa Time),NA,13,warmup/great-dane.jpg,pug,This is a ,no,2,3W1K7D6QSB5V821KPQIO8XUAG86BZ8,dogs,Patricia,NA,34YB12FSQZCUNW85GPPAPQLM8KFMGX,great dane,NA,yes,Please label the pictures below.,NA,NA,34,NA,,NA,warmup/pug.jpg,dogs,graduated_college,NA,NA,A2UUKFTD0VUX2S,English,male,NA,dogs,NA,1,1567791774285,2,This is a ,1,These are both,great dane,NA,NA,warmup2
486,NA,dandelion,NA,Fri Sep 06 2019 20:42:54 GMT+0300 (East Africa Time),NA,13,warmup/sunflower.png,dandelion,This is a ,no,2,3W1K7D6QSB5V821KPQIO8XUAG86BZ8,flowers,Patricia,NA,34YB12FSQZCUNW85GPPAPQLM8KFMGX,sunflower,NA,yes,Please label the pictures below.,NA,NA,34,NA,,NA,warmup/dandelion.jpg,flowers,graduated_college,NA,NA,A2UUKFTD0VUX2S,English,male,NA,flowers,NA,2,1567791774285,1,This is a ,1,These are both,sunflower,NA,NA,warmup2
486,NA,Chihuahua,NA,Fri Sep 06 2019 20:42:54 GMT+0300 (East Africa Time),NA,13,warmup/doberman.png,chihuahua,This is a ,no,2,3W1K7D6QSB5V821KPQIO8XUAG86BZ8,dogs,Patricia,NA,34YB12FSQZCUNW85GPPAPQLM8KFMGX,doberman,NA,yes,Please label the pictures below.,NA,NA,34,NA,,NA,warmup/chihuahua.jpg,dogs,graduated_college,NA,NA,A2UUKFTD0VUX2S,English,male,NA,dogs,NA,3,1567791774285,1,This is a ,1,These are both,doberman,NA,NA,warmup2
486,What do you think your friend meant?,NA,It is small relative to other ,Fri Sep 06 2019 20:42:54 GMT+0300 (East Africa Time),images/dog-parade-great-dane.png,13,NA,NA,NA,no,2,3W1K7D6QSB5V821KPQIO8XUAG86BZ8,dogs2,Patricia,NA,34YB12FSQZCUNW85GPPAPQLM8KFMGX,NA,2,yes,"You and your friend see another member of the group <br /> (not pictured), and your friend says: <br/><b>That's a small one.</b>",prenominal,NA,34,dogs,,1,NA,NA,graduated_college,small,NA,A2UUKFTD0VUX2S,English,male,,NA,You and your friend see the following:,1,1567791774285,NA,NA,1,NA,NA,NA,incongr,custom_main_text2
486,What do you think your friend meant?,NA,It is small relative to other ,Fri Sep 06 2019 20:42:54 GMT+0300 (East Africa Time),images/dog-parade-doberman.png,13,NA,NA,NA,no,2,3W1K7D6QSB5V821KPQIO8XUAG86BZ8,dogs1,Patricia,NA,34YB12FSQZCUNW85GPPAPQLM8KFMGX,NA,2,yes,"You and your friend see another member of the group <br /> (not pictured), and your friend says: <br/><b>That's a small doberman.</b>",prenominal,NA,34,dobermans,,0,NA,NA,graduated_college,small,NA,A2UUKFTD0VUX2S,English,male,,NA,You and your friend see the following:,2,1567791774285,NA,NA,1,NA,NA,NA,incongr,custom_main_text2
486,What do you think your friend meant?,NA,It is small relative to other ,Fri Sep 06 2019 20:42:54 GMT+0300 (East Africa Time),images/flower-parade-basic.png,13,NA,NA,NA,no,2,3W1K7D6QSB5V821KPQIO8XUAG86BZ8,flowers,Patricia,NA,34YB12FSQZCUNW85GPPAPQLM8KFMGX,NA,0,yes,"You and your friend see another member of the group <br /> (not pictured), and your friend says: <br/><b>That's a small dandelion.</b>",prenominal,NA,34,flowers,,0,NA,NA,graduated_college,small,NA,A2UUKFTD0VUX2S,English,male,,NA,You and your friend see the following:,3,1567791774285,NA,NA,1,NA,NA,NA,basic,custom_main_text2
484,<i>What do you think Speaker A meant? </i>,NA,The Empire State Building is tall relative to other ,Fri Sep 06 2019 11:45:40 GMT-0600 (Mountain Daylight Time),NA,13,NA,NA,NA,No,1,3W1K7D6QSB5V821KPQIO8XUAG86BZ8,NA,Sarah,1,32EYX73OY1X4PUMS52A8F4GNNFTRUQ,NA,NA,yes,NA,NA,"<b> Speaker A: ""The Empire State Building is tall.""</b>",28,buildings,,NA,NA,NA,some_college,NA,comp_class_warmup,A17QHU5Q0FS3GW,English,male,NA,NA,In the main trials you will be asked to rephrase something a person said. The utterance will contain a word that is <i>relative</i> and your task is to figure out what it is relative to. <br /> <br /> For example: <br /><br />,1,1567791940921,1,NA,1.00,NA,NA,"buildings, scyscrapers, houses, constructions (choose one)",NA,comp_class_warmup
484,NA,hummingbird,NA,Fri Sep 06 2019 11:45:40 GMT-0600 (Mountain Daylight Time),NA,13,warmup/eagle.jpg,hummingbird,This is a ,No,1,3W1K7D6QSB5V821KPQIO8XUAG86BZ8,birds,Sarah,NA,32EYX73OY1X4PUMS52A8F4GNNFTRUQ,eagle,NA,yes,Please label the pictures below.,NA,NA,28,NA,,NA,warmup/colibri.jpg,birds,some_college,NA,NA,A17QHU5Q0FS3GW,English,male,NA,birds,NA,1,1567791940921,1,This is an ,1.00,These are both,eagle,NA,NA,warmup1
484,NA,pug,NA,Fri Sep 06 2019 11:45:40 GMT-0600 (Mountain Daylight Time),NA,13,warmup/great-dane.jpg,pug,This is a ,No,1,3W1K7D6QSB5V821KPQIO8XUAG86BZ8,dogs,Sarah,NA,32EYX73OY1X4PUMS52A8F4GNNFTRUQ,great dane,NA,yes,Please label the pictures below.,NA,NA,28,NA,,NA,warmup/pug.jpg,dogs,some_college,NA,NA,A17QHU5Q0FS3GW,English,male,NA,dogs,NA,2,1567791940921,1,This is a ,1.00,These are both,big dog,NA,NA,warmup1
484,NA,pug,NA,Fri Sep 06 2019 11:45:40 GMT-0600 (Mountain Daylight Time),NA,13,warmup/great-dane.jpg,pug,This is a ,No,1,3W1K7D6QSB5V821KPQIO8XUAG86BZ8,dogs,Sarah,NA,32EYX73OY1X4PUMS52A8F4GNNFTRUQ,great dane,NA,yes,Please label the pictures below.,NA,NA,28,NA,,NA,warmup/pug.jpg,dogs,some_college,NA,NA,A17QHU5Q0FS3GW,English,male,NA,dogs,NA,2,1567791940921,2,This is a ,1.00,These are both,great dane,NA,NA,warmup1
484,NA,chihuahah,NA,Fri Sep 06 2019 11:45:40 GMT-0600 (Mountain Daylight Time),NA,13,warmup/doberman.png,chihuahua,This is a ,No,1,3W1K7D6QSB5V821KPQIO8XUAG86BZ8,dogs,Sarah,NA,32EYX73OY1X4PUMS52A8F4GNNFTRUQ,doberman,NA,yes,Please label the pictures below.,NA,NA,28,NA,,NA,warmup/chihuahua.jpg,dogs,some_college,NA,NA,A17QHU5Q0FS3GW,English,male,NA,dogs,NA,3,1567791940921,1,This is a ,1.00,These are both,mouser,NA,NA,warmup1
484,NA,chihuahua,NA,Fri Sep 06 2019 11:45:40 GMT-0600 (Mountain Daylight Time),NA,13,warmup/doberman.png,chihuahua,This is a ,No,1,3W1K7D6QSB5V821KPQIO8XUAG86BZ8,dogs,Sarah,NA,32EYX73OY1X4PUMS52A8F4GNNFTRUQ,doberman,NA,yes,Please label the pictures below.,NA,NA,28,NA,,NA,warmup/chihuahua.jpg,dogs,some_college,NA,NA,A17QHU5Q0FS3GW,English,male,NA,dogs,NA,3,1567791940921,2,This is a ,1.00,These are both,doberman,NA,NA,warmup1
484,What do you think your friend meant?,NA,It is big relative to other ,Fri Sep 06 2019 11:45:40 GMT-0600 (Mountain Daylight Time),images/bird-parade-hummingbird.png,13,NA,NA,NA,No,1,3W1K7D6QSB5V821KPQIO8XUAG86BZ8,birds,Sarah,NA,32EYX73OY1X4PUMS52A8F4GNNFTRUQ,NA,2,yes,"You and your friend see another member of the group <br /> (not pictured), and your friend says: <br/><b>That's a big hummingbird.</b>",prenominal,NA,28,hummingbirds,,0,NA,NA,some_college,big,NA,A17QHU5Q0FS3GW,English,male,,NA,You and your friend see the following:,1,1567791940921,NA,NA,1.00,NA,NA,NA,incongr,custom_main_text1
484,What do you think your friend meant?,NA,It is big relative to other ,Fri Sep 06 2019 11:45:40 GMT-0600 (Mountain Daylight Time),images/dog-parade-basic.png,13,NA,NA,NA,No,1,3W1K7D6QSB5V821KPQIO8XUAG86BZ8,dogs1,Sarah,NA,32EYX73OY1X4PUMS52A8F4GNNFTRUQ,NA,0,yes,"You and your friend see another member of the group <br /> (not pictured), and your friend says: <br/><b>That's a big one.</b>",prenominal,NA,28,dogs,,1,NA,NA,some_college,big,NA,A17QHU5Q0FS3GW,English,male,,NA,You and your friend see the following:,2,1567791940921,NA,NA,1.00,NA,NA,NA,basic,custom_main_text1
484,What do you think your friend meant?,NA,It is small relative to other ,Fri Sep 06 2019 11:45:40 GMT-0600 (Mountain Daylight Time),images/dog-parade-pug.png,13,NA,NA,NA,No,1,3W1K7D6QSB5V821KPQIO8XUAG86BZ8,dogs2,Sarah,NA,32EYX73OY1X4PUMS52A8F4GNNFTRUQ,NA,1,yes,"You and your friend see another member of the group <br /> (not pictured), and your friend says: <br/><b>That's a small one.</b>",prenominal,NA,28,dogs,,1,NA,NA,some_college,small,NA,A17QHU5Q0FS3GW,English,male,,NA,You and your friend see the following:,3,1567791940921,NA,NA,1.00,NA,NA,NA,congr,custom_main_text1
484,NA,dandilion,NA,Fri Sep 06 2019 11:45:40 GMT-0600 (Mountain Daylight Time),NA,13,warmup/sunflower.png,dandelion,This is a ,No,1,3W1K7D6QSB5V821KPQIO8XUAG86BZ8,flowers,Sarah,NA,32EYX73OY1X4PUMS52A8F4GNNFTRUQ,sunflower,NA,yes,Please label the pictures below.,NA,NA,28,NA,,NA,warmup/dandelion.jpg,flowers,some_college,NA,NA,A17QHU5Q0FS3GW,English,male,NA,flowers,NA,1,1567791940921,1,This is a ,1.00,These are both,sunflower,NA,NA,warmup2
484,NA,dandelion,NA,Fri Sep 06 2019 11:45:40 GMT-0600 (Mountain Daylight Time),NA,13,warmup/sunflower.png,dandelion,This is a ,No,1,3W1K7D6QSB5V821KPQIO8XUAG86BZ8,flowers,Sarah,NA,32EYX73OY1X4PUMS52A8F4GNNFTRUQ,sunflower,NA,yes,Please label the pictures below.,NA,NA,28,NA,,NA,warmup/dandelion.jpg,flowers,some_college,NA,NA,A17QHU5Q0FS3GW,English,male,NA,flowers,NA,1,1567791940921,2,This is a ,1.00,These are both,sunflower,NA,NA,warmup2
484,NA,tree,NA,Fri Sep 06 2019 11:45:40 GMT-0600 (Mountain Daylight Time),NA,13,warmup/bonsai.jpg,redwood or sequoia (choose one),This is a ,No,1,3W1K7D6QSB5V821KPQIO8XUAG86BZ8,trees,Sarah,NA,32EYX73OY1X4PUMS52A8F4GNNFTRUQ,bonsai,NA,yes,Please label the pictures below.,NA,NA,28,NA,,NA,warmup/sequoia.png,trees,some_college,NA,NA,A17QHU5Q0FS3GW,English,male,NA,trees,NA,2,1567791940921,1,This is a ,1.00,These are both,sappling,NA,NA,warmup2
484,NA,redwood,NA,Fri Sep 06 2019 11:45:40 GMT-0600 (Mountain Daylight Time),NA,13,warmup/bonsai.jpg,redwood or sequoia (choose one),This is a ,No,1,3W1K7D6QSB5V821KPQIO8XUAG86BZ8,trees,Sarah,NA,32EYX73OY1X4PUMS52A8F4GNNFTRUQ,bonsai,NA,yes,Please label the pictures below.,NA,NA,28,NA,,NA,warmup/sequoia.png,trees,some_college,NA,NA,A17QHU5Q0FS3GW,English,male,NA,trees,NA,2,1567791940921,2,This is a ,1.00,These are both,bonsai,NA,NA,warmup2
484,NA,swordfish,NA,Fri Sep 06 2019 11:45:40 GMT-0600 (Mountain Daylight Time),NA,13,warmup/goldfish.png,swordfish,This is a ,No,1,3W1K7D6QSB5V821KPQIO8XUAG86BZ8,fish,Sarah,NA,32EYX73OY1X4PUMS52A8F4GNNFTRUQ,goldfish,NA,yes,Please label the pictures below.,NA,NA,28,NA,,NA,warmup/swordfish.jpg,fish,some_college,NA,NA,A17QHU5Q0FS3GW,English,male,NA,fish,NA,3,1567791940921,1,This is a ,1.00,These are both,goldfish,NA,NA,warmup2
484,What do you think your friend meant?,NA,It is big relative to other ,Fri Sep 06 2019 11:45:40 GMT-0600 (Mountain Daylight Time),images/tree-parade-basic.png,13,NA,NA,NA,No,1,3W1K7D6QSB5V821KPQIO8XUAG86BZ8,trees,Sarah,NA,32EYX73OY1X4PUMS52A8F4GNNFTRUQ,NA,0,yes,"You and your friend see another member of the group <br /> (not pictured), and your friend says: <br/><b>That's a big one.</b>",prenominal,NA,28,trees,,1,NA,NA,some_college,big,NA,A17QHU5Q0FS3GW,English,male,,NA,You and your friend see the following:,1,1567791940921,NA,NA,1.00,NA,NA,NA,basic,custom_main_text2
484,Please rephrase your friend's comment.,NA,It is small relative to other ,Fri Sep 06 2019 11:45:40 GMT-0600 (Mountain Daylight Time),images/fish-parade-goldfish.png,13,NA,NA,NA,No,1,3W1K7D6QSB5V821KPQIO8XUAG86BZ8,fish,Sarah,NA,32EYX73OY1X4PUMS52A8F4GNNFTRUQ,NA,1,yes,"You and your friend see another member of the group <br /> (not pictured), and your friend says: <br/><b>That's a small goldfish.</b>",prenominal,NA,28,goldfish,,0,NA,NA,some_college,small,NA,A17QHU5Q0FS3GW,English,male,,NA,You and your friend see the following:,2,1567791940921,NA,NA,1.00,NA,NA,NA,congr,custom_main_text2
484,What do you think your friend meant?,NA,It is big relative to other ,Fri Sep 06 2019 11:45:40 GMT-0600 (Mountain Daylight Time),images/flower-parade-basic.png,13,NA,NA,NA,No,1,3W1K7D6QSB5V821KPQIO8XUAG86BZ8,flowers,Sarah,NA,32EYX73OY1X4PUMS52A8F4GNNFTRUQ,NA,0,yes,"You and your friend see another member of the group <br /> (not pictured), and your friend says: <br/><b>That's a big sunflower.</b>",prenominal,NA,28,sunflowers,,0,NA,NA,some_college,big,NA,A17QHU5Q0FS3GW,English,male,,NA,You and your friend see the following:,3,1567791940921,NA,NA,1.00,NA,NA,NA,basic,custom_main_text2
481,<i>What do you think Speaker A meant? </i>,NA,The Empire State Building is tall relative to other ,Fri Sep 06 2019 12:35:28 GMT-0500 (Central Daylight Time),NA,13,NA,NA,NA,One of the pictures in the doberman group is actually a miniature pinscher. It was on the far right with the shorter cropped ears and the pointier face.,2,3W1K7D6QSB5V821KPQIO8XUAG86BZ8,NA,patricia,1,3KIBXJ1WD6INPLP0JWP2FM2KA1BKOD,NA,NA,,NA,NA,"<b> Speaker A: ""The Empire State Building is tall.""</b>",,buildings,,NA,NA,NA,some_college,NA,comp_class_warmup,A2JM9NPXB1PERA,English,female,NA,NA,In the main trials you will be asked to rephrase something a person said. The utterance will contain a word that is <i>relative</i> and your task is to figure out what it is relative to. <br /> <br /> For example: <br /><br />,1,1567791328289,1,NA,1,NA,NA,"buildings, scyscrapers, houses, constructions (choose one)",NA,comp_class_warmup
481,NA,Tree,NA,Fri Sep 06 2019 12:35:28 GMT-0500 (Central Daylight Time),NA,13,warmup/bonsai.jpg,redwood or sequoia (choose one),This is a ,One of the pictures in the doberman group is actually a miniature pinscher. It was on the far right with the shorter cropped ears and the pointier face.,2,3W1K7D6QSB5V821KPQIO8XUAG86BZ8,trees,patricia,NA,3KIBXJ1WD6INPLP0JWP2FM2KA1BKOD,bonsai,NA,,Please label the pictures below.,NA,NA,,NA,,NA,warmup/sequoia.png,plants,some_college,NA,NA,A2JM9NPXB1PERA,English,female,NA,trees,NA,1,1567791328289,1,This is a ,1,These are both,bonsai,NA,NA,warmup1
481,NA,redwood,NA,Fri Sep 06 2019 12:35:28 GMT-0500 (Central Daylight Time),NA,13,warmup/bonsai.jpg,redwood or sequoia (choose one),This is a ,One of the pictures in the doberman group is actually a miniature pinscher. It was on the far right with the shorter cropped ears and the pointier face.,2,3W1K7D6QSB5V821KPQIO8XUAG86BZ8,trees,patricia,NA,3KIBXJ1WD6INPLP0JWP2FM2KA1BKOD,bonsai,NA,,Please label the pictures below.,NA,NA,,NA,,NA,warmup/sequoia.png,trees,some_college,NA,NA,A2JM9NPXB1PERA,English,female,NA,trees,NA,1,1567791328289,2,This is a ,1,These are both,bonsai,NA,NA,warmup1
481,NA,weed,NA,Fri Sep 06 2019 12:35:28 GMT-0500 (Central Daylight Time),NA,13,warmup/sunflower.png,dandelion,This is a ,One of the pictures in the doberman group is actually a miniature pinscher. It was on the far right with the shorter cropped ears and the pointier face.,2,3W1K7D6QSB5V821KPQIO8XUAG86BZ8,flowers,patricia,NA,3KIBXJ1WD6INPLP0JWP2FM2KA1BKOD,sunflower,NA,,Please label the pictures below.,NA,NA,,NA,,NA,warmup/dandelion.jpg,flowers,some_college,NA,NA,A2JM9NPXB1PERA,English,female,NA,flowers,NA,2,1567791328289,1,This is a ,1,These are both,sunflower,NA,NA,warmup1
481,NA,dandelion,NA,Fri Sep 06 2019 12:35:28 GMT-0500 (Central Daylight Time),NA,13,warmup/sunflower.png,dandelion,This is a ,One of the pictures in the doberman group is actually a miniature pinscher. It was on the far right with the shorter cropped ears and the pointier face.,2,3W1K7D6QSB5V821KPQIO8XUAG86BZ8,flowers,patricia,NA,3KIBXJ1WD6INPLP0JWP2FM2KA1BKOD,sunflower,NA,,Please label the pictures below.,NA,NA,,NA,,NA,warmup/dandelion.jpg,flowers,some_college,NA,NA,A2JM9NPXB1PERA,English,female,NA,flowers,NA,2,1567791328289,2,This is a ,1,These are both,sunflower,NA,NA,warmup1
481,NA,pug,NA,Fri Sep 06 2019 12:35:28 GMT-0500 (Central Daylight Time),NA,13,warmup/great-dane.jpg,pug,This is a ,One of the pictures in the doberman group is actually a miniature pinscher. It was on the far right with the shorter cropped ears and the pointier face.,2,3W1K7D6QSB5V821KPQIO8XUAG86BZ8,dogs,patricia,NA,3KIBXJ1WD6INPLP0JWP2FM2KA1BKOD,great dane,NA,,Please label the pictures below.,NA,NA,,NA,,NA,warmup/pug.jpg,dogs,some_college,NA,NA,A2JM9NPXB1PERA,English,female,NA,dogs,NA,3,1567791328289,1,This is a ,1,These are both,great dane,NA,NA,warmup1
481,What do you think your friend meant?,NA,It is big relative to other ,Fri Sep 06 2019 12:35:28 GMT-0500 (Central Daylight Time),images/tree-parade-basic.png,13,NA,NA,NA,One of the pictures in the doberman group is actually a miniature pinscher. It was on the far right with the shorter cropped ears and the pointier face.,2,3W1K7D6QSB5V821KPQIO8XUAG86BZ8,trees,patricia,NA,3KIBXJ1WD6INPLP0JWP2FM2KA1BKOD,NA,0,,"You and your friend see another member of the group <br /> (not pictured), and your friend says: <br/><b>That's a big redwood.</b>",prenominal,NA,,redwoods,,0,NA,NA,some_college,big,NA,A2JM9NPXB1PERA,English,female,,NA,You and your friend see the following:,1,1567791328289,NA,NA,1,NA,NA,NA,basic,custom_main_text1
481,What do you think your friend meant?,NA,It is small relative to other ,Fri Sep 06 2019 12:35:28 GMT-0500 (Central Daylight Time),images/dog-parade-basic2.png,13,NA,NA,NA,One of the pictures in the doberman group is actually a miniature pinscher. It was on the far right with the shorter cropped ears and the pointier face.,2,3W1K7D6QSB5V821KPQIO8XUAG86BZ8,dogs2,patricia,NA,3KIBXJ1WD6INPLP0JWP2FM2KA1BKOD,NA,0,,"You and your friend see another member of the group <br /> (not pictured), and your friend says: <br/><b>That's a small pug.</b>",prenominal,NA,,pugs,,0,NA,NA,some_college,small,NA,A2JM9NPXB1PERA,English,female,,NA,You and your friend see the following:,2,1567791328289,NA,NA,1,NA,NA,NA,basic,custom_main_text1
481,What do you think your friend meant?,NA,It is small relative to other ,Fri Sep 06 2019 12:35:28 GMT-0500 (Central Daylight Time),images/flower-parade-dandelion.png,13,NA,NA,NA,One of the pictures in the doberman group is actually a miniature pinscher. It was on the far right with the shorter cropped ears and the pointier face.,2,3W1K7D6QSB5V821KPQIO8XUAG86BZ8,flowers,patricia,NA,3KIBXJ1WD6INPLP0JWP2FM2KA1BKOD,NA,1,,"You and your friend see another member of the group <br /> (not pictured), and your friend says: <br/><b>That's a small dandelion.</b>",prenominal,NA,,dandelions,,0,NA,NA,some_college,small,NA,A2JM9NPXB1PERA,English,female,,NA,You and your friend see the following:,3,1567791328289,NA,NA,1,NA,NA,NA,congr,custom_main_text1
481,NA,hummingbird,NA,Fri Sep 06 2019 12:35:28 GMT-0500 (Central Daylight Time),NA,13,warmup/eagle.jpg,hummingbird,This is a ,One of the pictures in the doberman group is actually a miniature pinscher. It was on the far right with the shorter cropped ears and the pointier face.,2,3W1K7D6QSB5V821KPQIO8XUAG86BZ8,birds,patricia,NA,3KIBXJ1WD6INPLP0JWP2FM2KA1BKOD,eagle,NA,,Please label the pictures below.,NA,NA,,NA,,NA,warmup/colibri.jpg,birds,some_college,NA,NA,A2JM9NPXB1PERA,English,female,NA,birds,NA,1,1567791328289,1,This is an ,1,These are both,eagle,NA,NA,warmup2
481,NA,chihuahua,NA,Fri Sep 06 2019 12:35:28 GMT-0500 (Central Daylight Time),NA,13,warmup/doberman.png,chihuahua,This is a ,One of the pictures in the doberman group is actually a miniature pinscher. It was on the far right with the shorter cropped ears and the pointier face.,2,3W1K7D6QSB5V821KPQIO8XUAG86BZ8,dogs,patricia,NA,3KIBXJ1WD6INPLP0JWP2FM2KA1BKOD,doberman,NA,,Please label the pictures below.,NA,NA,,NA,,NA,warmup/chihuahua.jpg,dogs,some_college,NA,NA,A2JM9NPXB1PERA,English,female,NA,dogs,NA,2,1567791328289,1,This is a ,1,These are both,doberman,NA,NA,warmup2
481,NA,marlin,NA,Fri Sep 06 2019 12:35:28 GMT-0500 (Central Daylight Time),NA,13,warmup/goldfish.png,swordfish,This is a ,One of the pictures in the doberman group is actually a miniature pinscher. It was on the far right with the shorter cropped ears and the pointier face.,2,3W1K7D6QSB5V821KPQIO8XUAG86BZ8,fish,patricia,NA,3KIBXJ1WD6INPLP0JWP2FM2KA1BKOD,goldfish,NA,,Please label the pictures below.,NA,NA,,NA,,NA,warmup/swordfish.jpg,fish,some_college,NA,NA,A2JM9NPXB1PERA,English,female,NA,fish,NA,3,1567791328289,1,This is a ,1,These are both,goldfish,NA,NA,warmup2
481,NA,swordfish,NA,Fri Sep 06 2019 12:35:28 GMT-0500 (Central Daylight Time),NA,13,warmup/goldfish.png,swordfish,This is a ,One of the pictures in the doberman group is actually a miniature pinscher. It was on the far right with the shorter cropped ears and the pointier face.,2,3W1K7D6QSB5V821KPQIO8XUAG86BZ8,fish,patricia,NA,3KIBXJ1WD6INPLP0JWP2FM2KA1BKOD,goldfish,NA,,Please label the pictures below.,NA,NA,,NA,,NA,warmup/swordfish.jpg,fish,some_college,NA,NA,A2JM9NPXB1PERA,English,female,NA,fish,NA,3,1567791328289,2,This is a ,1,These are both,goldfish,NA,NA,warmup2
481,What do you think your friend meant?,NA,It is big relative to other ,Fri Sep 06 2019 12:35:28 GMT-0500 (Central Daylight Time),images/dog-parade-doberman.png,13,NA,NA,NA,One of the pictures in the doberman group is actually a miniature pinscher. It was on the far right with the shorter cropped ears and the pointier face.,2,3W1K7D6QSB5V821KPQIO8XUAG86BZ8,dogs1,patricia,NA,3KIBXJ1WD6INPLP0JWP2FM2KA1BKOD,NA,1,,"You and your friend see another member of the group <br /> (not pictured), and your friend says: <br/><b>That's a big one.</b>",prenominal,NA,,dobermans,,1,NA,NA,some_college,big,NA,A2JM9NPXB1PERA,English,female,,NA,You and your friend see the following:,1,1567791328289,NA,NA,1,NA,NA,NA,congr,custom_main_text2
481,Please rephrase your friend's comment.,NA,It is small relative to other ,Fri Sep 06 2019 12:35:28 GMT-0500 (Central Daylight Time),images/fish-parade-basic.png,13,NA,NA,NA,One of the pictures in the doberman group is actually a miniature pinscher. It was on the far right with the shorter cropped ears and the pointier face.,2,3W1K7D6QSB5V821KPQIO8XUAG86BZ8,fish,patricia,NA,3KIBXJ1WD6INPLP0JWP2FM2KA1BKOD,NA,0,,"You and your friend see another member of the group <br /> (not pictured), and your friend says: <br/><b>That's a small one.</b>",prenominal,NA,,fish,,1,NA,NA,some_college,small,NA,A2JM9NPXB1PERA,English,female,,NA,You and your friend see the following:,2,1567791328289,NA,NA,1,NA,NA,NA,basic,custom_main_text2
481,What do you think your friend meant?,NA,It is big relative to other ,Fri Sep 06 2019 12:35:28 GMT-0500 (Central Daylight Time),images/bird-parade-eagle.png,13,NA,NA,NA,One of the pictures in the doberman group is actually a miniature pinscher. It was on the far right with the shorter cropped ears and the pointier face.,2,3W1K7D6QSB5V821KPQIO8XUAG86BZ8,birds,patricia,NA,3KIBXJ1WD6INPLP0JWP2FM2KA1BKOD,NA,1,,"You and your friend see another member of the group <br /> (not pictured), and your friend says: <br/><b>That's a big one.</b>",prenominal,NA,,eagles,,1,NA,NA,some_college,big,NA,A2JM9NPXB1PERA,English,female,,NA,You and your friend see the following:,3,1567791328289,NA,NA,1,NA,NA,NA,congr,custom_main_text2
480,<i>What do you think Speaker A meant? </i>,NA,The Empire State Building is tall relative to other ,Fri Sep 06 2019 12:35:18 GMT-0500 (Central Daylight Time),NA,13,NA,NA,NA,,1,3PIOQ99R7YAGNCW7MTOPI0FPVF4UNQ,NA,jennifer,1,3E1QT0TDFQXTYYCWCCFU5KX73SII8X,NA,NA,yes,NA,NA,"<b> Speaker A: ""The Empire State Building is tall.""</b>",47,buildings,,NA,NA,NA,graduated_college,NA,comp_class_warmup,AVX3SWFMBEPMZ,English,male,NA,NA,In the main trials you will be asked to rephrase something a person said. The utterance will contain a word that is <i>relative</i> and your task is to figure out what it is relative to. <br /> <br /> For example: <br /><br />,1,1567791318384,1,NA,2,NA,NA,"buildings, scyscrapers, houses, constructions (choose one)",NA,comp_class_warmup
480,NA,pug,NA,Fri Sep 06 2019 12:35:18 GMT-0500 (Central Daylight Time),NA,13,warmup/great-dane.jpg,pug,This is a ,,1,3PIOQ99R7YAGNCW7MTOPI0FPVF4UNQ,dogs,jennifer,NA,3E1QT0TDFQXTYYCWCCFU5KX73SII8X,great dane,NA,yes,Please label the pictures below.,NA,NA,47,NA,,NA,warmup/pug.jpg,dogs,graduated_college,NA,NA,AVX3SWFMBEPMZ,English,male,NA,dogs,NA,1,1567791318384,1,This is a ,2,These are both,hound,NA,NA,warmup1
480,NA,pug,NA,Fri Sep 06 2019 12:35:18 GMT-0500 (Central Daylight Time),NA,13,warmup/great-dane.jpg,pug,This is a ,,1,3PIOQ99R7YAGNCW7MTOPI0FPVF4UNQ,dogs,jennifer,NA,3E1QT0TDFQXTYYCWCCFU5KX73SII8X,great dane,NA,yes,Please label the pictures below.,NA,NA,47,NA,,NA,warmup/pug.jpg,dogs,graduated_college,NA,NA,AVX3SWFMBEPMZ,English,male,NA,dogs,NA,1,1567791318384,2,This is a ,2,These are both,great dane,NA,NA,warmup1
480,NA,dandelion,NA,Fri Sep 06 2019 12:35:18 GMT-0500 (Central Daylight Time),NA,13,warmup/sunflower.png,dandelion,This is a ,,1,3PIOQ99R7YAGNCW7MTOPI0FPVF4UNQ,flowers,jennifer,NA,3E1QT0TDFQXTYYCWCCFU5KX73SII8X,sunflower,NA,yes,Please label the pictures below.,NA,NA,47,NA,,NA,warmup/dandelion.jpg,plants,graduated_college,NA,NA,AVX3SWFMBEPMZ,English,male,NA,flowers,NA,2,1567791318384,1,This is a ,2,These are both,sunflower,NA,NA,warmup1
480,NA,dandelion,NA,Fri Sep 06 2019 12:35:18 GMT-0500 (Central Daylight Time),NA,13,warmup/sunflower.png,dandelion,This is a ,,1,3PIOQ99R7YAGNCW7MTOPI0FPVF4UNQ,flowers,jennifer,NA,3E1QT0TDFQXTYYCWCCFU5KX73SII8X,sunflower,NA,yes,Please label the pictures below.,NA,NA,47,NA,,NA,warmup/dandelion.jpg,flowers,graduated_college,NA,NA,AVX3SWFMBEPMZ,English,male,NA,flowers,NA,2,1567791318384,2,This is a ,2,These are both,sunflower,NA,NA,warmup1
480,NA,hummingbird,NA,Fri Sep 06 2019 12:35:18 GMT-0500 (Central Daylight Time),NA,13,warmup/eagle.jpg,hummingbird,This is a ,,1,3PIOQ99R7YAGNCW7MTOPI0FPVF4UNQ,birds,jennifer,NA,3E1QT0TDFQXTYYCWCCFU5KX73SII8X,eagle,NA,yes,Please label the pictures below.,NA,NA,47,NA,,NA,warmup/colibri.jpg,birds,graduated_college,NA,NA,AVX3SWFMBEPMZ,English,male,NA,birds,NA,3,1567791318384,1,This is an ,2,These are both,eagle,NA,NA,warmup1
480,What do you think your friend meant?,NA,It is big relative to other ,Fri Sep 06 2019 12:35:18 GMT-0500 (Central Daylight Time),images/bird-parade-basic.png,13,NA,NA,NA,,1,3PIOQ99R7YAGNCW7MTOPI0FPVF4UNQ,birds,jennifer,NA,3E1QT0TDFQXTYYCWCCFU5KX73SII8X,NA,0,yes,"You and your friend see another member of the group <br /> (not pictured), and your friend says: <br/><b>That's a big eagle.</b>",prenominal,NA,47,birds,,0,NA,NA,graduated_college,big,NA,AVX3SWFMBEPMZ,English,male,,NA,You and your friend see the following:,1,1567791318384,NA,NA,2,NA,NA,NA,basic,custom_main_text1
480,What do you think your friend meant?,NA,It is big relative to other ,Fri Sep 06 2019 12:35:18 GMT-0500 (Central Daylight Time),images/flower-parade-dandelion.png,13,NA,NA,NA,,1,3PIOQ99R7YAGNCW7MTOPI0FPVF4UNQ,flowers,jennifer,NA,3E1QT0TDFQXTYYCWCCFU5KX73SII8X,NA,2,yes,"You and your friend see another member of the group <br /> (not pictured), and your friend says: <br/><b>That's a big dandelion.</b>",prenominal,NA,47,dandelions,,0,NA,NA,graduated_college,big,NA,AVX3SWFMBEPMZ,English,male,,NA,You and your friend see the following:,2,1567791318384,NA,NA,2,NA,NA,NA,incongr,custom_main_text1
480,What do you think your friend meant?,NA,It is big relative to other ,Fri Sep 06 2019 12:35:18 GMT-0500 (Central Daylight Time),images/dog-parade-great-dane.png,13,NA,NA,NA,,1,3PIOQ99R7YAGNCW7MTOPI0FPVF4UNQ,dogs2,jennifer,NA,3E1QT0TDFQXTYYCWCCFU5KX73SII8X,NA,1,yes,"You and your friend see another member of the group <br /> (not pictured), and your friend says: <br/><b>That's a big great dane.</b>",prenominal,NA,47,great danes,,0,NA,NA,graduated_college,big,NA,AVX3SWFMBEPMZ,English,male,,NA,You and your friend see the following:,3,1567791318384,NA,NA,2,NA,NA,NA,congr,custom_main_text1
480,NA,redwood,NA,Fri Sep 06 2019 12:35:18 GMT-0500 (Central Daylight Time),NA,13,warmup/bonsai.jpg,redwood or sequoia (choose one),This is a ,,1,3PIOQ99R7YAGNCW7MTOPI0FPVF4UNQ,trees,jennifer,NA,3E1QT0TDFQXTYYCWCCFU5KX73SII8X,bonsai,NA,yes,Please label the pictures below.,NA,NA,47,NA,,NA,warmup/sequoia.png,trees,graduated_college,NA,NA,AVX3SWFMBEPMZ,English,male,NA,trees,NA,1,1567791318384,1,This is a ,2,These are both,bonsai,NA,NA,warmup2
480,NA,chihuahua,NA,Fri Sep 06 2019 12:35:18 GMT-0500 (Central Daylight Time),NA,13,warmup/doberman.png,chihuahua,This is a ,,1,3PIOQ99R7YAGNCW7MTOPI0FPVF4UNQ,dogs,jennifer,NA,3E1QT0TDFQXTYYCWCCFU5KX73SII8X,doberman,NA,yes,Please label the pictures below.,NA,NA,47,NA,,NA,warmup/chihuahua.jpg,dogs,graduated_college,NA,NA,AVX3SWFMBEPMZ,English,male,NA,dogs,NA,2,1567791318384,1,This is a ,2,These are both,doberman,NA,NA,warmup2
480,NA,swordfish,NA,Fri Sep 06 2019 12:35:18 GMT-0500 (Central Daylight Time),NA,13,warmup/goldfish.png,swordfish,This is a ,,1,3PIOQ99R7YAGNCW7MTOPI0FPVF4UNQ,fish,jennifer,NA,3E1QT0TDFQXTYYCWCCFU5KX73SII8X,goldfish,NA,yes,Please label the pictures below.,NA,NA,47,NA,,NA,warmup/swordfish.jpg,fish,graduated_college,NA,NA,AVX3SWFMBEPMZ,English,male,NA,fish,NA,3,1567791318384,1,This is a ,2,These are both,goldfish,NA,NA,warmup2
480,Please rephrase your friend's comment.,NA,It is big relative to other ,Fri Sep 06 2019 12:35:18 GMT-0500 (Central Daylight Time),images/fish-parade-goldfish.png,13,NA,NA,NA,,1,3PIOQ99R7YAGNCW7MTOPI0FPVF4UNQ,fish,jennifer,NA,3E1QT0TDFQXTYYCWCCFU5KX73SII8X,NA,2,yes,"You and your friend see another member of the group <br /> (not pictured), and your friend says: <br/><b>That's a big one.</b>",prenominal,NA,47,things,,1,NA,NA,graduated_college,big,NA,AVX3SWFMBEPMZ,English,male,,NA,You and your friend see the following:,1,1567791318384,NA,NA,2,NA,NA,NA,incongr,custom_main_text2
480,What do you think your friend meant?,NA,It is small relative to other ,Fri Sep 06 2019 12:35:18 GMT-0500 (Central Daylight Time),images/tree-parade-basic.png,13,NA,NA,NA,,1,3PIOQ99R7YAGNCW7MTOPI0FPVF4UNQ,trees,jennifer,NA,3E1QT0TDFQXTYYCWCCFU5KX73SII8X,NA,0,yes,"You and your friend see another member of the group <br /> (not pictured), and your friend says: <br/><b>That's a small one.</b>",prenominal,NA,47,trees,,1,NA,NA,graduated_college,small,NA,AVX3SWFMBEPMZ,English,male,,NA,You and your friend see the following:,2,1567791318384,NA,NA,2,NA,NA,NA,basic,custom_main_text2
480,What do you think your friend meant?,NA,It is big relative to other ,Fri Sep 06 2019 12:35:18 GMT-0500 (Central Daylight Time),images/dog-parade-basic.png,13,NA,NA,NA,,1,3PIOQ99R7YAGNCW7MTOPI0FPVF4UNQ,dogs1,jennifer,NA,3E1QT0TDFQXTYYCWCCFU5KX73SII8X,NA,0,yes,"You and your friend see another member of the group <br /> (not pictured), and your friend says: <br/><b>That's a big one.</b>",prenominal,NA,47,dogs,,1,NA,NA,graduated_college,big,NA,AVX3SWFMBEPMZ,English,male,,NA,You and your friend see the following:,3,1567791318384,NA,NA,2,NA,NA,NA,basic,custom_main_text2
477,<i>What do you think Speaker A meant? </i>,NA,The Empire State Building is tall relative to other ,Fri Sep 06 2019 10:35:30 GMT-0700 (Pacific Daylight Time),NA,13,NA,NA,NA,no,2,3W1K7D6QSB5V821KPQIO8XUAG86BZ8,NA,barbara,1,3TDXMTX3CCI6UKT8JXIWL61GXXSI6B,NA,NA,,NA,NA,"<b> Speaker A: ""The Empire State Building is tall.""</b>",29,buildings.,,NA,NA,NA,graduated_college,NA,comp_class_warmup,A16KPD0UW2OPBA,englosh,male,NA,NA,In the main trials you will be asked to rephrase something a person said. The utterance will contain a word that is <i>relative</i> and your task is to figure out what it is relative to. <br /> <br /> For example: <br /><br />,1,1567791330447,1,NA,1.50,NA,NA,"buildings, scyscrapers, houses, constructions (choose one)",NA,comp_class_warmup
477,<i>What do you think Speaker A meant? </i>,NA,The Empire State Building is tall relative to other ,Fri Sep 06 2019 10:35:30 GMT-0700 (Pacific Daylight Time),NA,13,NA,NA,NA,no,2,3W1K7D6QSB5V821KPQIO8XUAG86BZ8,NA,barbara,1,3TDXMTX3CCI6UKT8JXIWL61GXXSI6B,NA,NA,,NA,NA,"<b> Speaker A: ""The Empire State Building is tall.""</b>",29,buildings,,NA,NA,NA,graduated_college,NA,comp_class_warmup,A16KPD0UW2OPBA,englosh,male,NA,NA,In the main trials you will be asked to rephrase something a person said. The utterance will contain a word that is <i>relative</i> and your task is to figure out what it is relative to. <br /> <br /> For example: <br /><br />,1,1567791330447,2,NA,1.50,NA,NA,"buildings, scyscrapers, houses, constructions (choose one)",NA,comp_class_warmup
477,NA,hummingbird,NA,Fri Sep 06 2019 10:35:30 GMT-0700 (Pacific Daylight Time),NA,13,warmup/eagle.jpg,hummingbird,This is a ,no,2,3W1K7D6QSB5V821KPQIO8XUAG86BZ8,birds,barbara,NA,3TDXMTX3CCI6UKT8JXIWL61GXXSI6B,eagle,NA,,Please label the pictures below.,NA,NA,29,NA,,NA,warmup/colibri.jpg,birds,graduated_college,NA,NA,A16KPD0UW2OPBA,englosh,male,NA,birds,NA,1,1567791330447,1,This is an ,1.50,These are both,eagle,NA,NA,warmup1
477,NA,dandelion,NA,Fri Sep 06 2019 10:35:30 GMT-0700 (Pacific Daylight Time),NA,13,warmup/sunflower.png,dandelion,This is a ,no,2,3W1K7D6QSB5V821KPQIO8XUAG86BZ8,flowers,barbara,NA,3TDXMTX3CCI6UKT8JXIWL61GXXSI6B,sunflower,NA,,Please label the pictures below.,NA,NA,29,NA,,NA,warmup/dandelion.jpg,flowers,graduated_college,NA,NA,A16KPD0UW2OPBA,englosh,male,NA,flowers,NA,2,1567791330447,1,This is a ,1.50,These are both,sunflower,NA,NA,warmup1
477,NA,pug,NA,Fri Sep 06 2019 10:35:30 GMT-0700 (Pacific Daylight Time),NA,13,warmup/great-dane.jpg,pug,This is a ,no,2,3W1K7D6QSB5V821KPQIO8XUAG86BZ8,dogs,barbara,NA,3TDXMTX3CCI6UKT8JXIWL61GXXSI6B,great dane,NA,,Please label the pictures below.,NA,NA,29,NA,,NA,warmup/pug.jpg,dogs,graduated_college,NA,NA,A16KPD0UW2OPBA,englosh,male,NA,dogs,NA,3,1567791330447,1,This is a ,1.50,These are both,great dane,NA,NA,warmup1
477,What do you think your friend meant?,NA,It is big relative to other ,Fri Sep 06 2019 10:35:30 GMT-0700 (Pacific Daylight Time),images/bird-parade-basic.png,13,NA,NA,NA,no,2,3W1K7D6QSB5V821KPQIO8XUAG86BZ8,birds,barbara,NA,3TDXMTX3CCI6UKT8JXIWL61GXXSI6B,NA,0,,"You and your friend see another member of the group <br /> (not pictured), and your friend says: <br/><b>That's a big one.</b>",prenominal,NA,29,birds,,1,NA,NA,graduated_college,big,NA,A16KPD0UW2OPBA,englosh,male,,NA,You and your friend see the following:,1,1567791330447,NA,NA,1.50,NA,NA,NA,basic,custom_main_text1
477,What do you think your friend meant?,NA,It is small relative to other ,Fri Sep 06 2019 10:35:30 GMT-0700 (Pacific Daylight Time),images/flower-parade-dandelion.png,13,NA,NA,NA,no,2,3W1K7D6QSB5V821KPQIO8XUAG86BZ8,flowers,barbara,NA,3TDXMTX3CCI6UKT8JXIWL61GXXSI6B,NA,1,,"You and your friend see another member of the group <br /> (not pictured), and your friend says: <br/><b>That's a small one.</b>",prenominal,NA,29,weeds,,1,NA,NA,graduated_college,small,NA,A16KPD0UW2OPBA,englosh,male,,NA,You and your friend see the following:,2,1567791330447,NA,NA,1.50,NA,NA,NA,congr,custom_main_text1
477,What do you think your friend meant?,NA,It is big relative to other ,Fri Sep 06 2019 10:35:30 GMT-0700 (Pacific Daylight Time),images/dog-parade-pug.png,13,NA,NA,NA,no,2,3W1K7D6QSB5V821KPQIO8XUAG86BZ8,dogs2,barbara,NA,3TDXMTX3CCI6UKT8JXIWL61GXXSI6B,NA,2,,"You and your friend see another member of the group <br /> (not pictured), and your friend says: <br/><b>That's a big pug.</b>",prenominal,NA,29,pugs,,0,NA,NA,graduated_college,big,NA,A16KPD0UW2OPBA,englosh,male,,NA,You and your friend see the following:,3,1567791330447,NA,NA,1.50,NA,NA,NA,incongr,custom_main_text1
477,NA,chihuahua,NA,Fri Sep 06 2019 10:35:30 GMT-0700 (Pacific Daylight Time),NA,13,warmup/doberman.png,chihuahua,This is a ,no,2,3W1K7D6QSB5V821KPQIO8XUAG86BZ8,dogs,barbara,NA,3TDXMTX3CCI6UKT8JXIWL61GXXSI6B,doberman,NA,,Please label the pictures below.,NA,NA,29,NA,,NA,warmup/chihuahua.jpg,dogs,graduated_college,NA,NA,A16KPD0UW2OPBA,englosh,male,NA,dogs,NA,1,1567791330447,1,This is a ,1.50,These are both,doberman,NA,NA,warmup2
477,NA,marlin,NA,Fri Sep 06 2019 10:35:30 GMT-0700 (Pacific Daylight Time),NA,13,warmup/goldfish.png,swordfish,This is a ,no,2,3W1K7D6QSB5V821KPQIO8XUAG86BZ8,fish,barbara,NA,3TDXMTX3CCI6UKT8JXIWL61GXXSI6B,goldfish,NA,,Please label the pictures below.,NA,NA,29,NA,,NA,warmup/swordfish.jpg,fish,graduated_college,NA,NA,A16KPD0UW2OPBA,englosh,male,NA,fish,NA,2,1567791330447,1,This is a ,1.50,These are both,goldfish,NA,NA,warmup2
477,NA,swordfish,NA,Fri Sep 06 2019 10:35:30 GMT-0700 (Pacific Daylight Time),NA,13,warmup/goldfish.png,swordfish,This is a ,no,2,3W1K7D6QSB5V821KPQIO8XUAG86BZ8,fish,barbara,NA,3TDXMTX3CCI6UKT8JXIWL61GXXSI6B,goldfish,NA,,Please label the pictures below.,NA,NA,29,NA,,NA,warmup/swordfish.jpg,fish,graduated_college,NA,NA,A16KPD0UW2OPBA,englosh,male,NA,fish,NA,2,1567791330447,2,This is a ,1.50,These are both,goldfish,NA,NA,warmup2
477,NA,redwood,NA,Fri Sep 06 2019 10:35:30 GMT-0700 (Pacific Daylight Time),NA,13,warmup/bonsai.jpg,redwood or sequoia (choose one),This is a ,no,2,3W1K7D6QSB5V821KPQIO8XUAG86BZ8,trees,barbara,NA,3TDXMTX3CCI6UKT8JXIWL61GXXSI6B,bonsai,NA,,Please label the pictures below.,NA,NA,29,NA,,NA,warmup/sequoia.png,trees,graduated_college,NA,NA,A16KPD0UW2OPBA,englosh,male,NA,trees,NA,3,1567791330447,1,This is a ,1.50,These are both,bonsai,NA,NA,warmup2
477,Please rephrase your friend's comment.,NA,It is small relative to other ,Fri Sep 06 2019 10:35:30 GMT-0700 (Pacific Daylight Time),images/fish-parade-basic.png,13,NA,NA,NA,no,2,3W1K7D6QSB5V821KPQIO8XUAG86BZ8,fish,barbara,NA,3TDXMTX3CCI6UKT8JXIWL61GXXSI6B,NA,0,,"You and your friend see another member of the group <br /> (not pictured), and your friend says: <br/><b>That's a small one.</b>",prenominal,NA,29,fish,,1,NA,NA,graduated_college,small,NA,A16KPD0UW2OPBA,englosh,male,,NA,You and your friend see the following:,1,1567791330447,NA,NA,1.50,NA,NA,NA,basic,custom_main_text2
477,What do you think your friend meant?,NA,It is big relative to other ,Fri Sep 06 2019 10:35:30 GMT-0700 (Pacific Daylight Time),images/dog-parade-doberman.png,13,NA,NA,NA,no,2,3W1K7D6QSB5V821KPQIO8XUAG86BZ8,dogs1,barbara,NA,3TDXMTX3CCI6UKT8JXIWL61GXXSI6B,NA,1,,"You and your friend see another member of the group <br /> (not pictured), and your friend says: <br/><b>That's a big doberman.</b>",prenominal,NA,29,doberman,,0,NA,NA,graduated_college,big,NA,A16KPD0UW2OPBA,englosh,male,,NA,You and your friend see the following:,2,1567791330447,NA,NA,1.50,NA,NA,NA,congr,custom_main_text2
477,What do you think your friend meant?,NA,It is big relative to other ,Fri Sep 06 2019 10:35:30 GMT-0700 (Pacific Daylight Time),images/tree-parade-basic.png,13,NA,NA,NA,no,2,3W1K7D6QSB5V821KPQIO8XUAG86BZ8,trees,barbara,NA,3TDXMTX3CCI6UKT8JXIWL61GXXSI6B,NA,0,,"You and your friend see another member of the group <br /> (not pictured), and your friend says: <br/><b>That's a big redwood.</b>",prenominal,NA,29,trees,,0,NA,NA,graduated_college,big,NA,A16KPD0UW2OPBA,englosh,male,,NA,You and your friend see the following:,3,1567791330447,NA,NA,1.50,NA,NA,NA,basic,custom_main_text2
475,<i>What do you think Speaker A meant? </i>,NA,The Empire State Building is tall relative to other ,Fri Sep 06 2019 07:30:37 GMT-1000 (Hawaii-Aleutian Standard Time),NA,13,NA,NA,NA,no,1,3W1K7D6QSB5V821KPQIO8XUAG86BZ8,NA,elizabeth,1,378XPAWRUD17HM5B9AZ81B32TGIAIT,NA,NA,yes,NA,NA,"<b> Speaker A: ""The Empire State Building is tall.""</b>",38,buildings,,NA,NA,NA,graduated_college,NA,comp_class_warmup,AV22FQTJNBUZT,english,female,NA,NA,In the main trials you will be asked to rephrase something a person said. The utterance will contain a word that is <i>relative</i> and your task is to figure out what it is relative to. <br /> <br /> For example: <br /><br />,1,1567791037518,1,NA,1.00,NA,NA,"buildings, scyscrapers, houses, constructions (choose one)",NA,comp_class_warmup
475,NA,hummingbird,NA,Fri Sep 06 2019 07:30:37 GMT-1000 (Hawaii-Aleutian Standard Time),NA,13,warmup/eagle.jpg,hummingbird,This is a ,no,1,3W1K7D6QSB5V821KPQIO8XUAG86BZ8,birds,elizabeth,NA,378XPAWRUD17HM5B9AZ81B32TGIAIT,eagle,NA,yes,Please label the pictures below.,NA,NA,38,NA,,NA,warmup/colibri.jpg,birds,graduated_college,NA,NA,AV22FQTJNBUZT,english,female,NA,birds,NA,1,1567791037518,1,This is an ,1.00,These are both,eagle,NA,NA,warmup1
475,NA,pug,NA,Fri Sep 06 2019 07:30:37 GMT-1000 (Hawaii-Aleutian Standard Time),NA,13,warmup/great-dane.jpg,pug,This is a ,no,1,3W1K7D6QSB5V821KPQIO8XUAG86BZ8,dogs,elizabeth,NA,378XPAWRUD17HM5B9AZ81B32TGIAIT,great dane,NA,yes,Please label the pictures below.,NA,NA,38,NA,,NA,warmup/pug.jpg,dogs,graduated_college,NA,NA,AV22FQTJNBUZT,english,female,NA,dogs,NA,2,1567791037518,1,This is a ,1.00,These are both,greyhound,NA,NA,warmup1
475,NA,pug,NA,Fri Sep 06 2019 07:30:37 GMT-1000 (Hawaii-Aleutian Standard Time),NA,13,warmup/great-dane.jpg,pug,This is a ,no,1,3W1K7D6QSB5V821KPQIO8XUAG86BZ8,dogs,elizabeth,NA,378XPAWRUD17HM5B9AZ81B32TGIAIT,great dane,NA,yes,Please label the pictures below.,NA,NA,38,NA,,NA,warmup/pug.jpg,dogs,graduated_college,NA,NA,AV22FQTJNBUZT,english,female,NA,dogs,NA,2,1567791037518,2,This is a ,1.00,These are both,great dane,NA,NA,warmup1
475,NA,elm,NA,Fri Sep 06 2019 07:30:37 GMT-1000 (Hawaii-Aleutian Standard Time),NA,13,warmup/bonsai.jpg,redwood or sequoia (choose one),This is a ,no,1,3W1K7D6QSB5V821KPQIO8XUAG86BZ8,trees,elizabeth,NA,378XPAWRUD17HM5B9AZ81B32TGIAIT,bonsai,NA,yes,Please label the pictures below.,NA,NA,38,NA,,NA,warmup/sequoia.png,trees,graduated_college,NA,NA,AV22FQTJNBUZT,english,female,NA,trees,NA,3,1567791037518,1,This is a ,1.00,These are both,bonsai,NA,NA,warmup1
475,NA,redwood,NA,Fri Sep 06 2019 07:30:37 GMT-1000 (Hawaii-Aleutian Standard Time),NA,13,warmup/bonsai.jpg,redwood or sequoia (choose one),This is a ,no,1,3W1K7D6QSB5V821KPQIO8XUAG86BZ8,trees,elizabeth,NA,378XPAWRUD17HM5B9AZ81B32TGIAIT,bonsai,NA,yes,Please label the pictures below.,NA,NA,38,NA,,NA,warmup/sequoia.png,trees,graduated_college,NA,NA,AV22FQTJNBUZT,english,female,NA,trees,NA,3,1567791037518,2,This is a ,1.00,These are both,bonsai,NA,NA,warmup1
475,What do you think your friend meant?,NA,It is big relative to other ,Fri Sep 06 2019 07:30:37 GMT-1000 (Hawaii-Aleutian Standard Time),images/bird-parade-hummingbird.png,13,NA,NA,NA,no,1,3W1K7D6QSB5V821KPQIO8XUAG86BZ8,birds,elizabeth,NA,378XPAWRUD17HM5B9AZ81B32TGIAIT,NA,2,yes,"You and your friend see another member of the group <br /> (not pictured), and your friend says: <br/><b>That's a big hummingbird.</b>",prenominal,NA,38,hummingbirds,,0,NA,NA,graduated_college,big,NA,AV22FQTJNBUZT,english,female,,NA,You and your friend see the following:,1,1567791037518,NA,NA,1.00,NA,NA,NA,incongr,custom_main_text1
475,What do you think your friend meant?,NA,It is big relative to other ,Fri Sep 06 2019 07:30:37 GMT-1000 (Hawaii-Aleutian Standard Time),images/dog-parade-great-dane.png,13,NA,NA,NA,no,1,3W1K7D6QSB5V821KPQIO8XUAG86BZ8,dogs2,elizabeth,NA,378XPAWRUD17HM5B9AZ81B32TGIAIT,NA,1,yes,"You and your friend see another member of the group <br /> (not pictured), and your friend says: <br/><b>That's a big one.</b>",prenominal,NA,38,dogs,,1,NA,NA,graduated_college,big,NA,AV22FQTJNBUZT,english,female,,NA,You and your friend see the following:,2,1567791037518,NA,NA,1.00,NA,NA,NA,congr,custom_main_text1
475,What do you think your friend meant?,NA,It is small relative to other ,Fri Sep 06 2019 07:30:37 GMT-1000 (Hawaii-Aleutian Standard Time),images/tree-parade-basic.png,13,NA,NA,NA,no,1,3W1K7D6QSB5V821KPQIO8XUAG86BZ8,trees,elizabeth,NA,378XPAWRUD17HM5B9AZ81B32TGIAIT,NA,0,yes,"You and your friend see another member of the group <br /> (not pictured), and your friend says: <br/><b>That's a small bonsai.</b>",prenominal,NA,38,bonsais,,0,NA,NA,graduated_college,small,NA,AV22FQTJNBUZT,english,female,,NA,You and your friend see the following:,3,1567791037518,NA,NA,1.00,NA,NA,NA,basic,custom_main_text1
475,NA,dolphin,NA,Fri Sep 06 2019 07:30:37 GMT-1000 (Hawaii-Aleutian Standard Time),NA,13,warmup/goldfish.png,swordfish,This is a ,no,1,3W1K7D6QSB5V821KPQIO8XUAG86BZ8,fish,elizabeth,NA,378XPAWRUD17HM5B9AZ81B32TGIAIT,goldfish,NA,yes,Please label the pictures below.,NA,NA,38,NA,,NA,warmup/swordfish.jpg,fish,graduated_college,NA,NA,AV22FQTJNBUZT,english,female,NA,fish,NA,1,1567791037518,1,This is a ,1.00,These are both,goldfish,NA,NA,warmup2
475,NA,swordfish,NA,Fri Sep 06 2019 07:30:37 GMT-1000 (Hawaii-Aleutian Standard Time),NA,13,warmup/goldfish.png,swordfish,This is a ,no,1,3W1K7D6QSB5V821KPQIO8XUAG86BZ8,fish,elizabeth,NA,378XPAWRUD17HM5B9AZ81B32TGIAIT,goldfish,NA,yes,Please label the pictures below.,NA,NA,38,NA,,NA,warmup/swordfish.jpg,fish,graduated_college,NA,NA,AV22FQTJNBUZT,english,female,NA,fish,NA,1,1567791037518,2,This is a ,1.00,These are both,goldfish,NA,NA,warmup2
475,NA,dandelion,NA,Fri Sep 06 2019 07:30:37 GMT-1000 (Hawaii-Aleutian Standard Time),NA,13,warmup/sunflower.png,dandelion,This is a ,no,1,3W1K7D6QSB5V821KPQIO8XUAG86BZ8,flowers,elizabeth,NA,378XPAWRUD17HM5B9AZ81B32TGIAIT,sunflower,NA,yes,Please label the pictures below.,NA,NA,38,NA,,NA,warmup/dandelion.jpg,flowers,graduated_college,NA,NA,AV22FQTJNBUZT,english,female,NA,flowers,NA,2,1567791037518,1,This is a ,1.00,These are both,sunflower,NA,NA,warmup2
475,NA,chiahua,NA,Fri Sep 06 2019 07:30:37 GMT-1000 (Hawaii-Aleutian Standard Time),NA,13,warmup/doberman.png,chihuahua,This is a ,no,1,3W1K7D6QSB5V821KPQIO8XUAG86BZ8,dogs,elizabeth,NA,378XPAWRUD17HM5B9AZ81B32TGIAIT,doberman,NA,yes,Please label the pictures below.,NA,NA,38,NA,,NA,warmup/chihuahua.jpg,dogs,graduated_college,NA,NA,AV22FQTJNBUZT,english,female,NA,dogs,NA,3,1567791037518,1,This is a ,1.00,These are both,dalmation,NA,NA,warmup2
475,NA,chihuahua,NA,Fri Sep 06 2019 07:30:37 GMT-1000 (Hawaii-Aleutian Standard Time),NA,13,warmup/doberman.png,chihuahua,This is a ,no,1,3W1K7D6QSB5V821KPQIO8XUAG86BZ8,dogs,elizabeth,NA,378XPAWRUD17HM5B9AZ81B32TGIAIT,doberman,NA,yes,Please label the pictures below.,NA,NA,38,NA,,NA,warmup/chihuahua.jpg,dogs,graduated_college,NA,NA,AV22FQTJNBUZT,english,female,NA,dogs,NA,3,1567791037518,2,This is a ,1.00,These are both,doberman,NA,NA,warmup2
475,Please rephrase your friend's comment.,NA,It is big relative to other ,Fri Sep 06 2019 07:30:37 GMT-1000 (Hawaii-Aleutian Standard Time),images/fish-parade-swordfish.png,13,NA,NA,NA,no,1,3W1K7D6QSB5V821KPQIO8XUAG86BZ8,fish,elizabeth,NA,378XPAWRUD17HM5B9AZ81B32TGIAIT,NA,1,yes,"You and your friend see another member of the group <br /> (not pictured), and your friend says: <br/><b>That's a big one.</b>",prenominal,NA,38,fish,,1,NA,NA,graduated_college,big,NA,AV22FQTJNBUZT,english,female,,NA,You and your friend see the following:,1,1567791037518,NA,NA,1.00,NA,NA,NA,congr,custom_main_text2
475,What do you think your friend meant?,NA,It is small relative to other ,Fri Sep 06 2019 07:30:37 GMT-1000 (Hawaii-Aleutian Standard Time),images/dog-parade-basic.png,13,NA,NA,NA,no,1,3W1K7D6QSB5V821KPQIO8XUAG86BZ8,dogs1,elizabeth,NA,378XPAWRUD17HM5B9AZ81B32TGIAIT,NA,0,yes,"You and your friend see another member of the group <br /> (not pictured), and your friend says: <br/><b>That's a small one.</b>",prenominal,NA,38,dogs,,1,NA,NA,graduated_college,small,NA,AV22FQTJNBUZT,english,female,,NA,You and your friend see the following:,2,1567791037518,NA,NA,1.00,NA,NA,NA,basic,custom_main_text2
475,What do you think your friend meant?,NA,It is big relative to other ,Fri Sep 06 2019 07:30:37 GMT-1000 (Hawaii-Aleutian Standard Time),images/flower-parade-basic.png,13,NA,NA,NA,no,1,3W1K7D6QSB5V821KPQIO8XUAG86BZ8,flowers,elizabeth,NA,378XPAWRUD17HM5B9AZ81B32TGIAIT,NA,0,yes,"You and your friend see another member of the group <br /> (not pictured), and your friend says: <br/><b>That's a big sunflower.</b>",prenominal,NA,38,sunflowers,,0,NA,NA,graduated_college,big,NA,AV22FQTJNBUZT,english,female,,NA,You and your friend see the following:,3,1567791037518,NA,NA,1.00,NA,NA,NA,basic,custom_main_text2
471,<i>What do you think Speaker A meant? </i>,NA,The Empire State Building is tall relative to other ,Fri Sep 06 2019 10:25:20 GMT-0700 (Pacific Standard Time),NA,13,NA,NA,NA,,1,3QE4DGPGBRZBWML6KJKCFC8YVQV4G6,NA,jessica,1,3PWWM24LHTMPNDYUN9U2I4QQEWL82C,NA,NA,yes,NA,NA,"<b> Speaker A: ""The Empire State Building is tall.""</b>",41,buildings,,NA,NA,NA,graduated_college,NA,comp_class_warmup,A3KKXA7COL5JHL,English,male,NA,NA,In the main trials you will be asked to rephrase something a person said. The utterance will contain a word that is <i>relative</i> and your task is to figure out what it is relative to. <br /> <br /> For example: <br /><br />,1,1567790720500,1,NA,2.00,NA,NA,"buildings, scyscrapers, houses, constructions (choose one)",NA,comp_class_warmup
471,NA,swordfish,NA,Fri Sep 06 2019 10:25:20 GMT-0700 (Pacific Standard Time),NA,13,warmup/goldfish.png,swordfish,This is a ,,1,3QE4DGPGBRZBWML6KJKCFC8YVQV4G6,fish,jessica,NA,3PWWM24LHTMPNDYUN9U2I4QQEWL82C,goldfish,NA,yes,Please label the pictures below.,NA,NA,41,NA,,NA,warmup/swordfish.jpg,fish,graduated_college,NA,NA,A3KKXA7COL5JHL,English,male,NA,fish,NA,1,1567790720500,1,This is a ,2.00,These are both,goldfish,NA,NA,warmup1
471,NA,tree,NA,Fri Sep 06 2019 10:25:20 GMT-0700 (Pacific Standard Time),NA,13,warmup/bonsai.jpg,redwood or sequoia (choose one),This is a ,,1,3QE4DGPGBRZBWML6KJKCFC8YVQV4G6,trees,jessica,NA,3PWWM24LHTMPNDYUN9U2I4QQEWL82C,bonsai,NA,yes,Please label the pictures below.,NA,NA,41,NA,,NA,warmup/sequoia.png,tree,graduated_college,NA,NA,A3KKXA7COL5JHL,English,male,NA,trees,NA,2,1567790720500,1,This is a ,2.00,These are both,tree,NA,NA,warmup1
471,NA,tree,NA,Fri Sep 06 2019 10:25:20 GMT-0700 (Pacific Standard Time),NA,13,warmup/bonsai.jpg,redwood or sequoia (choose one),This is a ,,1,3QE4DGPGBRZBWML6KJKCFC8YVQV4G6,trees,jessica,NA,3PWWM24LHTMPNDYUN9U2I4QQEWL82C,bonsai,NA,yes,Please label the pictures below.,NA,NA,41,NA,,NA,warmup/sequoia.png,trees,graduated_college,NA,NA,A3KKXA7COL5JHL,English,male,NA,trees,NA,2,1567790720500,2,This is a ,2.00,These are both,tree,NA,NA,warmup1
471,NA,redwood,NA,Fri Sep 06 2019 10:25:20 GMT-0700 (Pacific Standard Time),NA,13,warmup/bonsai.jpg,redwood or sequoia (choose one),This is a ,,1,3QE4DGPGBRZBWML6KJKCFC8YVQV4G6,trees,jessica,NA,3PWWM24LHTMPNDYUN9U2I4QQEWL82C,bonsai,NA,yes,Please label the pictures below.,NA,NA,41,NA,,NA,warmup/sequoia.png,trees,graduated_college,NA,NA,A3KKXA7COL5JHL,English,male,NA,trees,NA,2,1567790720500,3,This is a ,2.00,These are both,bonsai,NA,NA,warmup1
471,NA,dandilion,NA,Fri Sep 06 2019 10:25:20 GMT-0700 (Pacific Standard Time),NA,13,warmup/sunflower.png,dandelion,This is a ,,1,3QE4DGPGBRZBWML6KJKCFC8YVQV4G6,flowers,jessica,NA,3PWWM24LHTMPNDYUN9U2I4QQEWL82C,sunflower,NA,yes,Please label the pictures below.,NA,NA,41,NA,,NA,warmup/dandelion.jpg,flowers,graduated_college,NA,NA,A3KKXA7COL5JHL,English,male,NA,flowers,NA,3,1567790720500,1,This is a ,2.00,These are both,sunflower,NA,NA,warmup1
471,NA,dandelion,NA,Fri Sep 06 2019 10:25:20 GMT-0700 (Pacific Standard Time),NA,13,warmup/sunflower.png,dandelion,This is a ,,1,3QE4DGPGBRZBWML6KJKCFC8YVQV4G6,flowers,jessica,NA,3PWWM24LHTMPNDYUN9U2I4QQEWL82C,sunflower,NA,yes,Please label the pictures below.,NA,NA,41,NA,,NA,warmup/dandelion.jpg,flowers,graduated_college,NA,NA,A3KKXA7COL5JHL,English,male,NA,flowers,NA,3,1567790720500,2,This is a ,2.00,These are both,sunflower,NA,NA,warmup1
471,What do you think your friend meant?,NA,It is small relative to other ,Fri Sep 06 2019 10:25:20 GMT-0700 (Pacific Standard Time),images/tree-parade-basic.png,13,NA,NA,NA,,1,3QE4DGPGBRZBWML6KJKCFC8YVQV4G6,trees,jessica,NA,3PWWM24LHTMPNDYUN9U2I4QQEWL82C,NA,0,yes,"You and your friend see another member of the group <br /> (not pictured), and your friend says: <br/><b>That's a small bonsai.</b>",prenominal,NA,41,bonsai,,0,NA,NA,graduated_college,small,NA,A3KKXA7COL5JHL,English,male,,NA,You and your friend see the following:,1,1567790720500,NA,NA,2.00,NA,NA,NA,basic,custom_main_text1
471,Please rephrase your friend's comment.,NA,It is small relative to other ,Fri Sep 06 2019 10:25:20 GMT-0700 (Pacific Standard Time),images/fish-parade-goldfish.png,13,NA,NA,NA,,1,3QE4DGPGBRZBWML6KJKCFC8YVQV4G6,fish,jessica,NA,3PWWM24LHTMPNDYUN9U2I4QQEWL82C,NA,1,yes,"You and your friend see another member of the group <br /> (not pictured), and your friend says: <br/><b>That's a small one.</b>",prenominal,NA,41,goldfish,,1,NA,NA,graduated_college,small,NA,A3KKXA7COL5JHL,English,male,,NA,You and your friend see the following:,2,1567790720500,NA,NA,2.00,NA,NA,NA,congr,custom_main_text1
471,What do you think your friend meant?,NA,It is big relative to other ,Fri Sep 06 2019 10:25:20 GMT-0700 (Pacific Standard Time),images/flower-parade-basic.png,13,NA,NA,NA,,1,3QE4DGPGBRZBWML6KJKCFC8YVQV4G6,flowers,jessica,NA,3PWWM24LHTMPNDYUN9U2I4QQEWL82C,NA,0,yes,"You and your friend see another member of the group <br /> (not pictured), and your friend says: <br/><b>That's a big sunflower.</b>",prenominal,NA,41,sunflowers,,0,NA,NA,graduated_college,big,NA,A3KKXA7COL5JHL,English,male,,NA,You and your friend see the following:,3,1567790720500,NA,NA,2.00,NA,NA,NA,basic,custom_main_text1
471,NA,chawawa,NA,Fri Sep 06 2019 10:25:20 GMT-0700 (Pacific Standard Time),NA,13,warmup/doberman.png,chihuahua,This is a ,,1,3QE4DGPGBRZBWML6KJKCFC8YVQV4G6,dogs,jessica,NA,3PWWM24LHTMPNDYUN9U2I4QQEWL82C,doberman,NA,yes,Please label the pictures below.,NA,NA,41,NA,,NA,warmup/chihuahua.jpg,dogs,graduated_college,NA,NA,A3KKXA7COL5JHL,English,male,NA,dogs,NA,1,1567790720500,1,This is a ,2.00,These are both,rotwhiler,NA,NA,warmup2
471,NA,chihuahua,NA,Fri Sep 06 2019 10:25:20 GMT-0700 (Pacific Standard Time),NA,13,warmup/doberman.png,chihuahua,This is a ,,1,3QE4DGPGBRZBWML6KJKCFC8YVQV4G6,dogs,jessica,NA,3PWWM24LHTMPNDYUN9U2I4QQEWL82C,doberman,NA,yes,Please label the pictures below.,NA,NA,41,NA,,NA,warmup/chihuahua.jpg,dogs,graduated_college,NA,NA,A3KKXA7COL5JHL,English,male,NA,dogs,NA,1,1567790720500,2,This is a ,2.00,These are both,doberman,NA,NA,warmup2
471,NA,hummingbird,NA,Fri Sep 06 2019 10:25:20 GMT-0700 (Pacific Standard Time),NA,13,warmup/eagle.jpg,hummingbird,This is a ,,1,3QE4DGPGBRZBWML6KJKCFC8YVQV4G6,birds,jessica,NA,3PWWM24LHTMPNDYUN9U2I4QQEWL82C,eagle,NA,yes,Please label the pictures below.,NA,NA,41,NA,,NA,warmup/colibri.jpg,birds,graduated_college,NA,NA,A3KKXA7COL5JHL,English,male,NA,birds,NA,2,1567790720500,1,This is an ,2.00,These are both,eagle,NA,NA,warmup2
471,NA,pug,NA,Fri Sep 06 2019 10:25:20 GMT-0700 (Pacific Standard Time),NA,13,warmup/great-dane.jpg,pug,This is a ,,1,3QE4DGPGBRZBWML6KJKCFC8YVQV4G6,dogs,jessica,NA,3PWWM24LHTMPNDYUN9U2I4QQEWL82C,great dane,NA,yes,Please label the pictures below.,NA,NA,41,NA,,NA,warmup/pug.jpg,dogs,graduated_college,NA,NA,A3KKXA7COL5JHL,English,male,NA,dogs,NA,3,1567790720500,1,This is a ,2.00,These are both,dog,NA,NA,warmup2
471,NA,pug,NA,Fri Sep 06 2019 10:25:20 GMT-0700 (Pacific Standard Time),NA,13,warmup/great-dane.jpg,pug,This is a ,,1,3QE4DGPGBRZBWML6KJKCFC8YVQV4G6,dogs,jessica,NA,3PWWM24LHTMPNDYUN9U2I4QQEWL82C,great dane,NA,yes,Please label the pictures below.,NA,NA,41,NA,,NA,warmup/pug.jpg,dogs,graduated_college,NA,NA,A3KKXA7COL5JHL,English,male,NA,dogs,NA,3,1567790720500,2,This is a ,2.00,These are both,great dane,NA,NA,warmup2
471,What do you think your friend meant?,NA,It is small relative to other ,Fri Sep 06 2019 10:25:20 GMT-0700 (Pacific Standard Time),images/dog-parade-doberman.png,13,NA,NA,NA,,1,3QE4DGPGBRZBWML6KJKCFC8YVQV4G6,dogs1,jessica,NA,3PWWM24LHTMPNDYUN9U2I4QQEWL82C,NA,2,yes,"You and your friend see another member of the group <br /> (not pictured), and your friend says: <br/><b>That's a small one.</b>",prenominal,NA,41,dobermans,,1,NA,NA,graduated_college,small,NA,A3KKXA7COL5JHL,English,male,,NA,You and your friend see the following:,1,1567790720500,NA,NA,2.00,NA,NA,NA,incongr,custom_main_text2
471,What do you think your friend meant?,NA,It is big relative to other ,Fri Sep 06 2019 10:25:20 GMT-0700 (Pacific Standard Time),images/bird-parade-basic.png,13,NA,NA,NA,,1,3QE4DGPGBRZBWML6KJKCFC8YVQV4G6,birds,jessica,NA,3PWWM24LHTMPNDYUN9U2I4QQEWL82C,NA,0,yes,"You and your friend see another member of the group <br /> (not pictured), and your friend says: <br/><b>That's a big eagle.</b>",prenominal,NA,41,eagles,,0,NA,NA,graduated_college,big,NA,A3KKXA7COL5JHL,English,male,,NA,You and your friend see the following:,2,1567790720500,NA,NA,2.00,NA,NA,NA,basic,custom_main_text2
471,What do you think your friend meant?,NA,It is small relative to other ,Fri Sep 06 2019 10:25:20 GMT-0700 (Pacific Standard Time),images/dog-parade-pug.png,13,NA,NA,NA,,1,3QE4DGPGBRZBWML6KJKCFC8YVQV4G6,dogs2,jessica,NA,3PWWM24LHTMPNDYUN9U2I4QQEWL82C,NA,1,yes,"You and your friend see another member of the group <br /> (not pictured), and your friend says: <br/><b>That's a small one.</b>",prenominal,NA,41,pugs,,1,NA,NA,graduated_college,small,NA,A3KKXA7COL5JHL,English,male,,NA,You and your friend see the following:,3,1567790720500,NA,NA,2.00,NA,NA,NA,congr,custom_main_text2
470,<i>What do you think Speaker A meant? </i>,NA,The Empire State Building is tall relative to other ,Fri Sep 06 2019 13:10:10 GMT-0400 (Eastern Daylight Time),NA,13,NA,NA,NA,No,2,3W1K7D6QSB5V821KPQIO8XUAG86BZ8,NA,susan,1,3VD82FOHKRC56NDCRJ84R3PC5S2COS,NA,NA,yes,NA,NA,"<b> Speaker A: ""The Empire State Building is tall.""</b>",33,buildings,,NA,NA,NA,graduated_high_school,NA,comp_class_warmup,A3ZUQODR46SC4,English,female,NA,NA,In the main trials you will be asked to rephrase something a person said. The utterance will contain a word that is <i>relative</i> and your task is to figure out what it is relative to. <br /> <br /> For example: <br /><br />,1,1567789810876,1,NA,1.00,NA,NA,"buildings, scyscrapers, houses, constructions (choose one)",NA,comp_class_warmup
470,NA,Hummingbird,NA,Fri Sep 06 2019 13:10:10 GMT-0400 (Eastern Daylight Time),NA,13,warmup/eagle.jpg,hummingbird,This is a ,No,2,3W1K7D6QSB5V821KPQIO8XUAG86BZ8,birds,susan,NA,3VD82FOHKRC56NDCRJ84R3PC5S2COS,eagle,NA,yes,Please label the pictures below.,NA,NA,33,NA,,NA,warmup/colibri.jpg,Birds,graduated_high_school,NA,NA,A3ZUQODR46SC4,English,female,NA,birds,NA,1,1567789810876,1,This is an ,1.00,These are both,Eagle,NA,NA,warmup1
470,NA,Chihuahua,NA,Fri Sep 06 2019 13:10:10 GMT-0400 (Eastern Daylight Time),NA,13,warmup/doberman.png,chihuahua,This is a ,No,2,3W1K7D6QSB5V821KPQIO8XUAG86BZ8,dogs,susan,NA,3VD82FOHKRC56NDCRJ84R3PC5S2COS,doberman,NA,yes,Please label the pictures below.,NA,NA,33,NA,,NA,warmup/chihuahua.jpg,Dogs,graduated_high_school,NA,NA,A3ZUQODR46SC4,English,female,NA,dogs,NA,2,1567789810876,1,This is a ,1.00,These are both,Doberman,NA,NA,warmup1
470,NA,Pug,NA,Fri Sep 06 2019 13:10:10 GMT-0400 (Eastern Daylight Time),NA,13,warmup/great-dane.jpg,pug,This is a ,No,2,3W1K7D6QSB5V821KPQIO8XUAG86BZ8,dogs,susan,NA,3VD82FOHKRC56NDCRJ84R3PC5S2COS,great dane,NA,yes,Please label the pictures below.,NA,NA,33,NA,,NA,warmup/pug.jpg,Dogs,graduated_high_school,NA,NA,A3ZUQODR46SC4,English,female,NA,dogs,NA,3,1567789810876,1,This is a ,1.00,These are both,Labrador,NA,NA,warmup1
470,NA,Pug,NA,Fri Sep 06 2019 13:10:10 GMT-0400 (Eastern Daylight Time),NA,13,warmup/great-dane.jpg,pug,This is a ,No,2,3W1K7D6QSB5V821KPQIO8XUAG86BZ8,dogs,susan,NA,3VD82FOHKRC56NDCRJ84R3PC5S2COS,great dane,NA,yes,Please label the pictures below.,NA,NA,33,NA,,NA,warmup/pug.jpg,Dogs,graduated_high_school,NA,NA,A3ZUQODR46SC4,English,female,NA,dogs,NA,3,1567789810876,2,This is a ,1.00,These are both,Great Dane,NA,NA,warmup1
470,What do you think your friend meant?,NA,It is small relative to other ,Fri Sep 06 2019 13:10:10 GMT-0400 (Eastern Daylight Time),images/dog-parade-basic.png,13,NA,NA,NA,No,2,3W1K7D6QSB5V821KPQIO8XUAG86BZ8,dogs1,susan,NA,3VD82FOHKRC56NDCRJ84R3PC5S2COS,NA,0,yes,"You and your friend see another member of the group <br /> (not pictured), and your friend says: <br/><b>That's a small chihuahua.</b>",prenominal,NA,33,chihuahua,,0,NA,NA,graduated_high_school,small,NA,A3ZUQODR46SC4,English,female,,NA,You and your friend see the following:,1,1567789810876,NA,NA,1.00,NA,NA,NA,basic,custom_main_text1
470,What do you think your friend meant?,NA,It is small relative to other ,Fri Sep 06 2019 13:10:10 GMT-0400 (Eastern Daylight Time),images/bird-parade-basic.png,13,NA,NA,NA,No,2,3W1K7D6QSB5V821KPQIO8XUAG86BZ8,birds,susan,NA,3VD82FOHKRC56NDCRJ84R3PC5S2COS,NA,0,yes,"You and your friend see another member of the group <br /> (not pictured), and your friend says: <br/><b>That's a small hummingbird.</b>",prenominal,NA,33,hummingbird,,0,NA,NA,graduated_high_school,small,NA,A3ZUQODR46SC4,English,female,,NA,You and your friend see the following:,2,1567789810876,NA,NA,1.00,NA,NA,NA,basic,custom_main_text1
470,What do you think your friend meant?,NA,It is big relative to other ,Fri Sep 06 2019 13:10:10 GMT-0400 (Eastern Daylight Time),images/dog-parade-basic2.png,13,NA,NA,NA,No,2,3W1K7D6QSB5V821KPQIO8XUAG86BZ8,dogs2,susan,NA,3VD82FOHKRC56NDCRJ84R3PC5S2COS,NA,0,yes,"You and your friend see another member of the group <br /> (not pictured), and your friend says: <br/><b>That's a big one.</b>",prenominal,NA,33,Dogs,,1,NA,NA,graduated_high_school,big,NA,A3ZUQODR46SC4,English,female,,NA,You and your friend see the following:,3,1567789810876,NA,NA,1.00,NA,NA,NA,basic,custom_main_text1
470,NA,swordfish,NA,Fri Sep 06 2019 13:10:10 GMT-0400 (Eastern Daylight Time),NA,13,warmup/goldfish.png,swordfish,This is a ,No,2,3W1K7D6QSB5V821KPQIO8XUAG86BZ8,fish,susan,NA,3VD82FOHKRC56NDCRJ84R3PC5S2COS,goldfish,NA,yes,Please label the pictures below.,NA,NA,33,NA,,NA,warmup/swordfish.jpg,fish,graduated_high_school,NA,NA,A3ZUQODR46SC4,English,female,NA,fish,NA,1,1567789810876,1,This is a ,1.00,These are both,goldfish,NA,NA,warmup2
470,NA,pinetree,NA,Fri Sep 06 2019 13:10:10 GMT-0400 (Eastern Daylight Time),NA,13,warmup/bonsai.jpg,redwood or sequoia (choose one),This is a ,No,2,3W1K7D6QSB5V821KPQIO8XUAG86BZ8,trees,susan,NA,3VD82FOHKRC56NDCRJ84R3PC5S2COS,bonsai,NA,yes,Please label the pictures below.,NA,NA,33,NA,,NA,warmup/sequoia.png,trees,graduated_high_school,NA,NA,A3ZUQODR46SC4,English,female,NA,trees,NA,2,1567789810876,1,This is a ,1.00,These are both,bonsai tree,NA,NA,warmup2
470,NA,redwood,NA,Fri Sep 06 2019 13:10:10 GMT-0400 (Eastern Daylight Time),NA,13,warmup/bonsai.jpg,redwood or sequoia (choose one),This is a ,No,2,3W1K7D6QSB5V821KPQIO8XUAG86BZ8,trees,susan,NA,3VD82FOHKRC56NDCRJ84R3PC5S2COS,bonsai,NA,yes,Please label the pictures below.,NA,NA,33,NA,,NA,warmup/sequoia.png,trees,graduated_high_school,NA,NA,A3ZUQODR46SC4,English,female,NA,trees,NA,2,1567789810876,2,This is a ,1.00,These are both,bonsai,NA,NA,warmup2
470,NA,dandelion,NA,Fri Sep 06 2019 13:10:10 GMT-0400 (Eastern Daylight Time),NA,13,warmup/sunflower.png,dandelion,This is a ,No,2,3W1K7D6QSB5V821KPQIO8XUAG86BZ8,flowers,susan,NA,3VD82FOHKRC56NDCRJ84R3PC5S2COS,sunflower,NA,yes,Please label the pictures below.,NA,NA,33,NA,,NA,warmup/dandelion.jpg,flowers,graduated_high_school,NA,NA,A3ZUQODR46SC4,English,female,NA,flowers,NA,3,1567789810876,1,This is a ,1.00,These are both,sunflower,NA,NA,warmup2
470,What do you think your friend meant?,NA,It is small relative to other ,Fri Sep 06 2019 13:10:10 GMT-0400 (Eastern Daylight Time),images/flower-parade-sunflower.png,13,NA,NA,NA,No,2,3W1K7D6QSB5V821KPQIO8XUAG86BZ8,flowers,susan,NA,3VD82FOHKRC56NDCRJ84R3PC5S2COS,NA,2,yes,"You and your friend see another member of the group <br /> (not pictured), and your friend says: <br/><b>That's a small sunflower.</b>",prenominal,NA,33,sunflowers,,0,NA,NA,graduated_high_school,small,NA,A3ZUQODR46SC4,English,female,,NA,You and your friend see the following:,1,1567789810876,NA,NA,1.00,NA,NA,NA,incongr,custom_main_text2
470,What do you think your friend meant?,NA,It is small relative to other ,Fri Sep 06 2019 13:10:10 GMT-0400 (Eastern Daylight Time),images/tree-parade-redwood.png,13,NA,NA,NA,No,2,3W1K7D6QSB5V821KPQIO8XUAG86BZ8,trees,susan,NA,3VD82FOHKRC56NDCRJ84R3PC5S2COS,NA,2,yes,"You and your friend see another member of the group <br /> (not pictured), and your friend says: <br/><b>That's a small one.</b>",prenominal,NA,33,trees,,1,NA,NA,graduated_high_school,small,NA,A3ZUQODR46SC4,English,female,,NA,You and your friend see the following:,2,1567789810876,NA,NA,1.00,NA,NA,NA,incongr,custom_main_text2
470,Please rephrase your friend's comment.,NA,It is small relative to other ,Fri Sep 06 2019 13:10:10 GMT-0400 (Eastern Daylight Time),images/fish-parade-goldfish.png,13,NA,NA,NA,No,2,3W1K7D6QSB5V821KPQIO8XUAG86BZ8,fish,susan,NA,3VD82FOHKRC56NDCRJ84R3PC5S2COS,NA,1,yes,"You and your friend see another member of the group <br /> (not pictured), and your friend says: <br/><b>That's a small one.</b>",prenominal,NA,33,goldfish,,1,NA,NA,graduated_high_school,small,NA,A3ZUQODR46SC4,English,female,,NA,You and your friend see the following:,3,1567789810876,NA,NA,1.00,NA,NA,NA,congr,custom_main_text2
464,<i>What do you think Speaker A meant? </i>,NA,The Empire State Building is tall relative to other ,Fri Sep 06 2019 13:20:12 GMT-0400 (Eastern Daylight Time),NA,13,NA,NA,NA,Nope,2,3W1K7D6QSB5V821KPQIO8XUAG86BZ8,NA,Margaret,1,3NG53N1RLW7LFKZ0P75EEHYJP6DP8G,NA,NA,yes,NA,NA,"<b> Speaker A: ""The Empire State Building is tall.""</b>",23,buildings,N/A,NA,NA,NA,some_college,NA,comp_class_warmup,AJ2AOZ9IHBDIR,English,male,NA,NA,In the main trials you will be asked to rephrase something a person said. The utterance will contain a word that is <i>relative</i> and your task is to figure out what it is relative to. <br /> <br /> For example: <br /><br />,1,1567790412531,1,NA,1,NA,NA,"buildings, scyscrapers, houses, constructions (choose one)",NA,comp_class_warmup
464,NA,puppy,NA,Fri Sep 06 2019 13:20:12 GMT-0400 (Eastern Daylight Time),NA,13,warmup/doberman.png,chihuahua,This is a ,Nope,2,3W1K7D6QSB5V821KPQIO8XUAG86BZ8,dogs,Margaret,NA,3NG53N1RLW7LFKZ0P75EEHYJP6DP8G,doberman,NA,yes,Please label the pictures below.,NA,NA,23,NA,N/A,NA,warmup/chihuahua.jpg,dogs,some_college,NA,NA,AJ2AOZ9IHBDIR,English,male,NA,dogs,NA,1,1567790412531,1,This is a ,1,These are both,dog,NA,NA,warmup1
464,NA,chihuahua,NA,Fri Sep 06 2019 13:20:12 GMT-0400 (Eastern Daylight Time),NA,13,warmup/doberman.png,chihuahua,This is a ,Nope,2,3W1K7D6QSB5V821KPQIO8XUAG86BZ8,dogs,Margaret,NA,3NG53N1RLW7LFKZ0P75EEHYJP6DP8G,doberman,NA,yes,Please label the pictures below.,NA,NA,23,NA,N/A,NA,warmup/chihuahua.jpg,dogs,some_college,NA,NA,AJ2AOZ9IHBDIR,English,male,NA,dogs,NA,1,1567790412531,2,This is a ,1,These are both,doberman,NA,NA,warmup1
464,NA,dandelion,NA,Fri Sep 06 2019 13:20:12 GMT-0400 (Eastern Daylight Time),NA,13,warmup/sunflower.png,dandelion,This is a ,Nope,2,3W1K7D6QSB5V821KPQIO8XUAG86BZ8,flowers,Margaret,NA,3NG53N1RLW7LFKZ0P75EEHYJP6DP8G,sunflower,NA,yes,Please label the pictures below.,NA,NA,23,NA,N/A,NA,warmup/dandelion.jpg,flowers,some_college,NA,NA,AJ2AOZ9IHBDIR,English,male,NA,flowers,NA,2,1567790412531,1,This is a ,1,These are both,sunflower,NA,NA,warmup1
464,NA,hummingbird,NA,Fri Sep 06 2019 13:20:12 GMT-0400 (Eastern Daylight Time),NA,13,warmup/eagle.jpg,hummingbird,This is a ,Nope,2,3W1K7D6QSB5V821KPQIO8XUAG86BZ8,birds,Margaret,NA,3NG53N1RLW7LFKZ0P75EEHYJP6DP8G,eagle,NA,yes,Please label the pictures below.,NA,NA,23,NA,N/A,NA,warmup/colibri.jpg,birds,some_college,NA,NA,AJ2AOZ9IHBDIR,English,male,NA,birds,NA,3,1567790412531,1,This is an ,1,These are both,eagle,NA,NA,warmup1
464,What do you think your friend meant?,NA,It is big relative to other ,Fri Sep 06 2019 13:20:12 GMT-0400 (Eastern Daylight Time),images/dog-parade-basic.png,13,NA,NA,NA,Nope,2,3W1K7D6QSB5V821KPQIO8XUAG86BZ8,dogs1,Margaret,NA,3NG53N1RLW7LFKZ0P75EEHYJP6DP8G,NA,0,yes,"You and your friend see another member of the group <br /> (not pictured), and your friend says: <br/><b>That's a big doberman.</b>",prenominal,NA,23,dogs,N/A,0,NA,NA,some_college,big,NA,AJ2AOZ9IHBDIR,English,male,,NA,You and your friend see the following:,1,1567790412531,NA,NA,1,NA,NA,NA,basic,custom_main_text1
