submission_id,question,startDate,target_picture,context_picture,experiment_id,trial_type,problems,enjoyment,item,botresponse,trials,option2,option1,understand,text,sentence,syntax,ref_np,target,age,response,comments,education,target_size,name,languages,sex,RT,context,trial_number,startTime,attempts,item_noun,paraphrase,fairprice,correct,adj_cond,trial_name,adj,utterance
2870,<i>What do you think Speaker A meant? </i>,Mon Apr 12 2021 17:06:44 GMT-0400 (Eastern Daylight Time),NA,NA,41,NA,No,1,NA,mary,1,NA,NA,yes,NA,"<b> Speaker A: ""The Empire State Building is tall.""</b>",NA,NA,NA,50,buildings,NA,higher_degree,NA,comp_class_warmup,English,female,NA,In the main trials you will be asked to rephrase something a person said. The utterance will contain a word that is <i>relative</i> and your task is to figure out what it is relative to. <br /> <br /> For example: <br />,1,1618261604560,1,NA,The Empire State Building is tall relative to other,1.25,"buildings, skyscrapers, houses, constructions (choose one)",NA,comp_class_warmup,NA,NA
2870,What do you think your friend is saying it is small relative to?,Mon Apr 12 2021 17:06:44 GMT-0400 (Eastern Daylight Time),images/dandelion-landmark.png,images/flower-parade-basic-landmark.png,41,critical,No,1,flowers,mary,NA,flowers,dandelions,yes,Your friend points to something in the distance (not shown).,NA,pred,landmark,dandelion,50,dandelions,NA,higher_degree,small,NA,English,female,36241,You and your friend walk to a cabin you are renting for the weekend for the first time. You go along the path and you see the following:,1,1618261604560,NA,flowers_landmark,It is small relative to other,1.25,NA,congruent,custom_main_text1,small,Your friend says: <br/><b>That landmark is a small dandelion.</b>
2870,What do you think your friend is saying it is big relative to?,Mon Apr 12 2021 17:06:44 GMT-0400 (Eastern Daylight Time),images/redwood_filler.png,images/tree-parade-basic_filler.png,41,filler,No,1,trees,mary,NA,trees,redwoods,yes,Your friend points to something in the distance (not shown).,NA,pred,landmark,redwood,50,trees,NA,higher_degree,big,NA,English,female,19805,You and your friend see the following:,2,1618261604560,NA,trees_landmark,It is big relative to other,1.25,NA,congruent,custom_main_text1,big,Your friend says: <br/><b>That's a big redwood.</b>
2870,What do you think your friend is saying it is big relative to?,Mon Apr 12 2021 17:06:44 GMT-0400 (Eastern Daylight Time),images/skyscraper-landmark-filler.png,images/buildings-parade-basic_filler.png,41,filler,No,1,buildings,mary,NA,skyscrapers,buildings,yes,Your friend points to something in the distance (not shown).,NA,subj,landmark,skyscraper,50,buildings,NA,higher_degree,big,NA,English,female,11701,You and your friend see the following:,3,1618261604560,NA,buildings_landmark,It is big relative to other,1.25,NA,congruent,custom_main_text1,big,Your friend says: <br/><b>That skyscraper is big.</b>
2870,What do you think your friend is saying it is small relative to?,Mon Apr 12 2021 17:06:44 GMT-0400 (Eastern Daylight Time),images/clownfish_filler.png,images/fish-parade-basic_filler.png,41,filler,No,1,fish,mary,NA,fish,clownfish,yes,Your friend points to something in the distance (not shown).,NA,pred,rescue,clownfish,50,fish,NA,higher_degree,small,NA,English,female,10815,You and your friend see the following:,4,1618261604560,NA,fish_rescue,It is small relative to other,1.25,NA,congruent,custom_main_text1,small,Your friend says: <br/><b>That's a small clownfish.</b>
2870,What do you think your friend is saying it is small relative to?,Mon Apr 12 2021 17:06:44 GMT-0400 (Eastern Daylight Time),images/dandelion_filler.png,images/flower-parade-basic_filler.png,41,filler,No,1,flowers,mary,NA,dandelions,flowers,yes,Your friend points to something in the distance (not shown).,NA,subj,present,dandelion,50,dandelions,NA,higher_degree,small,NA,English,female,26031,You and your friend see the following:,5,1618261604560,NA,flowers_present,It is small relative to other,1.25,NA,congruent,custom_main_text1,small,Your friend says: <br/><b>That dandelion is small.</b>
2870,What do you think your friend is saying it is small relative to?,Mon Apr 12 2021 17:06:44 GMT-0400 (Eastern Daylight Time),images/stripmall-landmark.png,images/buildings-parade-basic.png,41,critical,No,1,buildings,mary,NA,buildings,stripmalls,yes,Your friend points to something in the distance (not shown).,NA,pred,landmark,stripmall,50,buildings,NA,higher_degree,small,NA,English,female,19136,You visit your friend who lives in another city. You take a walk and you see the following:,6,1618261604560,NA,buildings_landmark,It is small relative to other,1.25,NA,congruent,custom_main_text1,small,Your friend says: <br/><b>That landmark is a small stripmall.</b>
2870,What do you think your friend is saying it is big relative to?,Mon Apr 12 2021 17:06:44 GMT-0400 (Eastern Daylight Time),images/sunflower_filler.png,images/flower-parade-basic_filler.png,41,filler,No,1,flowers,mary,NA,sunflowers,flowers,yes,Your friend points to something in the distance (not shown).,NA,subj,landmark,sunflower,50,sunflowers,NA,higher_degree,big,NA,English,female,10521,You and your friend see the following:,7,1618261604560,NA,flowers_landmark,It is big relative to other,1.25,NA,congruent,custom_main_text1,big,Your friend says: <br/><b>That sunflower is big.</b>
2870,What do you think your friend is saying it is small relative to?,Mon Apr 12 2021 17:06:44 GMT-0400 (Eastern Daylight Time),images/hummingbird.png,images/bird-parade-basic.png,41,critical,No,1,birds,mary,NA,hummingbirds,birds,yes,Your friend points to something in the distance (not shown).,NA,subj,rescue,hummingbird,50,birds,NA,higher_degree,small,NA,English,female,21521,You visit your friend who works at an animal shelter and you see the following:,8,1618261604560,NA,birds_rescue,It is small relative to other,1.25,NA,congruent,custom_main_text1,small,Your friend says: <br/><b>That small hummingbird is a rescue.</b>
2870,What do you think your friend is saying it is big relative to?,Mon Apr 12 2021 17:06:44 GMT-0400 (Eastern Daylight Time),images/great-dane.png,images/dog-parade-basic2.png,41,critical,No,1,dogs2,mary,NA,dogs,Great Danes,yes,Your friend points to something in the distance (not shown).,NA,pred,prize-winner,Great Dane,50,Great,NA,higher_degree,big,NA,English,female,22870,You and your friend are at a pet show and you see the following:,9,1618261604560,NA,dogs2_prize,It is big relative to other,1.25,NA,congruent,custom_main_text1,big,Your friend says: <br/><b>That prize-winner is a big Great Dane.</b>
2870,What do you think your friend is saying it is big relative to?,Mon Apr 12 2021 17:06:44 GMT-0400 (Eastern Daylight Time),images/tuna_net.png,images/fish-parade-basic.png,41,critical,No,1,fish,mary,NA,tunas,fish,yes,Your friend points to something in the distance (not shown).,NA,subj,rescue,tuna,50,fish,NA,higher_degree,big,NA,English,female,12036,You visit your friend who works as a marine biologist and you see the following:,10,1618261604560,NA,fish_rescue,It is big relative to other,1.25,NA,congruent,custom_main_text1,big,Your friend says: <br/><b>That big tuna is a rescue.</b>
2870,What do you think your friend is saying it is small relative to?,Mon Apr 12 2021 17:06:44 GMT-0400 (Eastern Daylight Time),images/pug_filler.png,images/dog-parade-basic2_filler.png,41,filler,No,1,dogs2,mary,NA,pugs,dogs,yes,Your friend points to something in the distance (not shown).,NA,subj,prize-winner,pug,50,dogs,NA,higher_degree,small,NA,English,female,10764,You and your friend see the following:,11,1618261604560,NA,dogs2_prize,It is small relative to other,1.25,NA,congruent,custom_main_text1,small,Your friend says: <br/><b>That pug is small.</b>
2870,What do you think your friend is saying it is big relative to?,Mon Apr 12 2021 17:06:44 GMT-0400 (Eastern Daylight Time),images/sunflower.png,images/flower-parade-basic.png,41,critical,No,1,flowers,mary,NA,sunflowers,flowers,yes,Your friend points to something in the distance (not shown).,NA,pred,present,sunflower,50,sunflowers,NA,higher_degree,big,NA,English,female,20916,You and your friend are at a garden store and you see the following:,12,1618261604560,NA,flowers_present,It is big relative to other,1.25,NA,congruent,custom_main_text1,big,Your friend says: <br/><b>That present is a big sunflower.</b>
2870,What do you think your friend is saying it is big relative to?,Mon Apr 12 2021 17:06:44 GMT-0400 (Eastern Daylight Time),images/eagle_filler.png,images/bird-parade-basic_filler.png,41,filler,No,1,birds,mary,NA,birds,eagles,yes,Your friend points to something in the distance (not shown).,NA,pred,rescue,eagle,50,eagles,NA,higher_degree,big,NA,English,female,7867,You and your friend see the following:,13,1618261604560,NA,birds_rescue,It is big relative to other,1.25,NA,congruent,custom_main_text1,big,Your friend says: <br/><b>That's a big eagle.</b>
2870,What do you think your friend is saying it is small relative to?,Mon Apr 12 2021 17:06:44 GMT-0400 (Eastern Daylight Time),images/bonsai_stick.png,images/tree-parade-basic.png,41,critical,No,1,trees,mary,NA,trees,bonsais,yes,Your friend points to something in the distance (not shown).,NA,subj,landmark,bonsai,50,trees,NA,higher_degree,small,NA,English,female,27362,You and your friend walk to your friend's cabin in a park for the first time. You want to memorize the path and you see the following:,14,1618261604560,NA,trees_landmark,It is small relative to other,1.25,NA,congruent,custom_main_text1,small,Your friend says: <br/><b>That small bonsai is a landmark.</b>
2870,What do you think your friend is saying it is small relative to?,Mon Apr 12 2021 17:06:44 GMT-0400 (Eastern Daylight Time),images/chihuahua_filler.png,images/dog-parade-basic_filler.png,41,filler,No,1,dogs1,mary,NA,dogs,chihuahuas,yes,Your friend points to something in the distance (not shown).,NA,pred,service-animal,chihuahua,50,chihuahuas,NA,higher_degree,small,NA,English,female,11154,You and your friend see the following:,15,1618261604560,NA,dogs1_service,It is small relative to other,1.25,NA,congruent,custom_main_text1,small,Your friend says: <br/><b>That's a small chihuahua.</b>
2870,What do you think your friend is saying it is big relative to?,Mon Apr 12 2021 17:06:44 GMT-0400 (Eastern Daylight Time),images/doberman.png,images/dog-parade-basic.png,41,critical,No,1,dogs1,mary,NA,dogs,dobermen,yes,Your friend points to something in the distance (not shown).,NA,subj,service-animal,doberman,50,dobermen,NA,higher_degree,big,NA,English,female,17531,You and your friend are at an animal training ground and you see the following:,16,1618261604560,NA,dogs1_service,It is big relative to other,1.25,NA,congruent,custom_main_text1,big,Your friend says: <br/><b>That big doberman is a service-animal.</b>
2869,<i>What do you think Speaker A meant? </i>,Mon Apr 12 2021 15:02:17 GMT-0600 (Mountain Daylight Time),NA,NA,41,NA,No.,0,NA,susan,1,NA,NA,yes,NA,"<b> Speaker A: ""The Empire State Building is tall.""</b>",NA,NA,NA,34,buildings.,NA,higher_degree,NA,comp_class_warmup,English,male,NA,In the main trials you will be asked to rephrase something a person said. The utterance will contain a word that is <i>relative</i> and your task is to figure out what it is relative to. <br /> <br /> For example: <br />,1,1618261337342,1,NA,The Empire State Building is tall relative to other,1,"buildings, skyscrapers, houses, constructions (choose one)",NA,comp_class_warmup,NA,NA
2869,<i>What do you think Speaker A meant? </i>,Mon Apr 12 2021 15:02:17 GMT-0600 (Mountain Daylight Time),NA,NA,41,NA,No.,0,NA,susan,1,NA,NA,yes,NA,"<b> Speaker A: ""The Empire State Building is tall.""</b>",NA,NA,NA,34,buildings.,NA,higher_degree,NA,comp_class_warmup,English,male,NA,In the main trials you will be asked to rephrase something a person said. The utterance will contain a word that is <i>relative</i> and your task is to figure out what it is relative to. <br /> <br /> For example: <br />,1,1618261337342,2,NA,The Empire State Building is tall relative to other,1,"buildings, skyscrapers, houses, constructions (choose one)",NA,comp_class_warmup,NA,NA
2869,<i>What do you think Speaker A meant? </i>,Mon Apr 12 2021 15:02:17 GMT-0600 (Mountain Daylight Time),NA,NA,41,NA,No.,0,NA,susan,1,NA,NA,yes,NA,"<b> Speaker A: ""The Empire State Building is tall.""</b>",NA,NA,NA,34,buildings.,NA,higher_degree,NA,comp_class_warmup,English,male,NA,In the main trials you will be asked to rephrase something a person said. The utterance will contain a word that is <i>relative</i> and your task is to figure out what it is relative to. <br /> <br /> For example: <br />,1,1618261337342,3,NA,The Empire State Building is tall relative to other,1,"buildings, skyscrapers, houses, constructions (choose one)",NA,comp_class_warmup,NA,NA
2869,<i>What do you think Speaker A meant? </i>,Mon Apr 12 2021 15:02:17 GMT-0600 (Mountain Daylight Time),NA,NA,41,NA,No.,0,NA,susan,1,NA,NA,yes,NA,"<b> Speaker A: ""The Empire State Building is tall.""</b>",NA,NA,NA,34,buildings,NA,higher_degree,NA,comp_class_warmup,English,male,NA,In the main trials you will be asked to rephrase something a person said. The utterance will contain a word that is <i>relative</i> and your task is to figure out what it is relative to. <br /> <br /> For example: <br />,1,1618261337342,4,NA,The Empire State Building is tall relative to other,1,"buildings, skyscrapers, houses, constructions (choose one)",NA,comp_class_warmup,NA,NA
2869,What do you think your friend is saying it is big relative to?,Mon Apr 12 2021 15:02:17 GMT-0600 (Mountain Daylight Time),images/eagle.png,images/bird-parade-basic.png,41,critical,No.,0,birds,susan,NA,eagles,birds,yes,Your friend points to something in the distance (not shown).,NA,pred,rescue,eagle,34,eagles,NA,higher_degree,big,NA,English,male,54004,You visit your friend who works at an animal shelter and you see the following:,1,1618261337342,NA,birds_rescue,It is big relative to other,1,NA,congruent,custom_main_text1,big,Your friend says: <br/><b>That rescue is a big eagle.</b>
2869,What do you think your friend is saying it is big relative to?,Mon Apr 12 2021 15:02:17 GMT-0600 (Mountain Daylight Time),images/skyscraper-landmark-filler.png,images/buildings-parade-basic_filler.png,41,filler,No.,0,buildings,susan,NA,skyscrapers,buildings,yes,Your friend points to something in the distance (not shown).,NA,pred,landmark,skyscraper,34,skyscrapers,NA,higher_degree,big,NA,English,male,11299,You and your friend see the following:,2,1618261337342,NA,buildings_landmark,It is big relative to other,1,NA,congruent,custom_main_text1,big,Your friend says: <br/><b>That's a big skyscraper.</b>
2869,What do you think your friend is saying it is small relative to?,Mon Apr 12 2021 15:02:17 GMT-0600 (Mountain Daylight Time),images/stripmall-landmark.png,images/buildings-parade-basic.png,41,critical,No.,0,buildings,susan,NA,buildings,stripmalls,yes,Your friend points to something in the distance (not shown).,NA,subj,landmark,stripmall,34,stripmalls,NA,higher_degree,small,NA,English,male,10762,You visit your friend who lives in another city. You take a walk and you see the following:,3,1618261337342,NA,buildings_landmark,It is small relative to other,1,NA,congruent,custom_main_text1,small,Your friend says: <br/><b>That small stripmall is a landmark.</b>
2869,What do you think your friend is saying it is small relative to?,Mon Apr 12 2021 15:02:17 GMT-0600 (Mountain Daylight Time),images/bonsai_filler.png,images/tree-parade-basic_filler.png,41,filler,No.,0,trees,susan,NA,bonsais,trees,yes,Your friend points to something in the distance (not shown).,NA,subj,landmark,bonsai,34,bonsais,NA,higher_degree,small,NA,English,male,12694,You and your friend see the following:,4,1618261337342,NA,trees_landmark,It is small relative to other,1,NA,congruent,custom_main_text1,small,Your friend says: <br/><b>That bonsai is small.</b>
2869,What do you think your friend is saying it is small relative to?,Mon Apr 12 2021 15:02:17 GMT-0600 (Mountain Daylight Time),images/dandelion_filler.png,images/flower-parade-basic_filler.png,41,filler,No.,0,flowers,susan,NA,flowers,dandelions,yes,Your friend points to something in the distance (not shown).,NA,pred,landmark,dandelion,34,dandelions,NA,higher_degree,small,NA,English,male,10774,You and your friend see the following:,5,1618261337342,NA,flowers_landmark,It is small relative to other,1,NA,congruent,custom_main_text1,small,Your friend says: <br/><b>That's a small dandelion.</b>
2869,What do you think your friend is saying it is small relative to?,Mon Apr 12 2021 15:02:17 GMT-0600 (Mountain Daylight Time),images/hummingbird_filler.png,images/bird-parade-basic_filler.png,41,filler,No.,0,birds,susan,NA,hummingbirds,birds,yes,Your friend points to something in the distance (not shown).,NA,subj,rescue,hummingbird,34,hummingbirds,NA,higher_degree,small,NA,English,male,4631,You and your friend see the following:,6,1618261337342,NA,birds_rescue,It is small relative to other,1,NA,congruent,custom_main_text1,small,Your friend says: <br/><b>That hummingbird is small.</b>
2869,What do you think your friend is saying it is big relative to?,Mon Apr 12 2021 15:02:17 GMT-0600 (Mountain Daylight Time),images/redwood_sign.png,images/tree-parade-basic.png,41,critical,No.,0,trees,susan,NA,trees,redwoods,yes,Your friend points to something in the distance (not shown).,NA,pred,landmark,redwood,34,redwoods,NA,higher_degree,big,NA,English,male,9277,You and your friend walk to your friend's cabin in a park for the first time. You want to memorize the path and you see the following:,7,1618261337342,NA,trees_landmark,It is big relative to other,1,NA,congruent,custom_main_text1,big,Your friend says: <br/><b>That landmark is a big redwood.</b>
2869,What do you think your friend is saying it is big relative to?,Mon Apr 12 2021 15:02:17 GMT-0600 (Mountain Daylight Time),images/sunflower-landmark.png,images/flower-parade-basic-landmark.png,41,critical,No.,0,flowers,susan,NA,sunflowers,flowers,yes,Your friend points to something in the distance (not shown).,NA,subj,landmark,sunflower,34,sunflowers,NA,higher_degree,big,NA,English,male,12092,You and your friend walk to a cabin you are renting for the weekend for the first time. You go along the path and you see the following:,8,1618261337342,NA,flowers_landmark,It is big relative to other,1,NA,congruent,custom_main_text1,big,Your friend says: <br/><b>That big sunflower is a landmark.</b>
2869,What do you think your friend is saying it is small relative to?,Mon Apr 12 2021 15:02:17 GMT-0600 (Mountain Daylight Time),images/chihuahua_filler.png,images/dog-parade-basic_filler.png,41,filler,No.,0,dogs1,susan,NA,dogs,chihuahuas,yes,Your friend points to something in the distance (not shown).,NA,pred,service-animal,chihuahua,34,chihuahuas,NA,higher_degree,small,NA,English,male,6226,You and your friend see the following:,9,1618261337342,NA,dogs1_service,It is small relative to other,1,NA,congruent,custom_main_text1,small,Your friend says: <br/><b>That's a small chihuahua.</b>
2869,What do you think your friend is saying it is big relative to?,Mon Apr 12 2021 15:02:17 GMT-0600 (Mountain Daylight Time),images/doberman.png,images/dog-parade-basic.png,41,critical,No.,0,dogs1,susan,NA,dogs,dobermen,yes,Your friend points to something in the distance (not shown).,NA,subj,service-animal,doberman,34,dobermen,NA,higher_degree,big,NA,English,male,10114,You and your friend are at an animal training ground and you see the following:,10,1618261337342,NA,dogs1_service,It is big relative to other,1,NA,congruent,custom_main_text1,big,Your friend says: <br/><b>That big doberman is a service-animal.</b>
2869,What do you think your friend is saying it is small relative to?,Mon Apr 12 2021 15:02:17 GMT-0600 (Mountain Daylight Time),images/clownfish_net.png,images/fish-parade-basic.png,41,critical,No.,0,fish,susan,NA,clownfish,fish,yes,Your friend points to something in the distance (not shown).,NA,pred,rescue,clownfish,34,clownfish,NA,higher_degree,small,NA,English,male,11280,You visit your friend who works as a marine biologist and you see the following:,11,1618261337342,NA,fish_rescue,It is small relative to other,1,NA,congruent,custom_main_text1,small,Your friend says: <br/><b>That rescue is a small clownfish.</b>
2869,What do you think your friend is saying it is big relative to?,Mon Apr 12 2021 15:02:17 GMT-0600 (Mountain Daylight Time),images/tuna_filler.png,images/fish-parade-basic_filler.png,41,filler,No.,0,fish,susan,NA,tunas,fish,yes,Your friend points to something in the distance (not shown).,NA,subj,rescue,tuna,34,tunas,NA,higher_degree,big,NA,English,male,15918,You and your friend see the following:,12,1618261337342,NA,fish_rescue,It is big relative to other,1,NA,congruent,custom_main_text1,big,Your friend says: <br/><b>That tuna is big.</b>
2869,What do you think your friend is saying it is big relative to?,Mon Apr 12 2021 15:02:17 GMT-0600 (Mountain Daylight Time),images/doberman_filler.png,images/dog-parade-basic_filler.png,41,filler,No.,0,dogs1,susan,NA,dobermen,dogs,yes,Your friend points to something in the distance (not shown).,NA,pred,rescue,doberman,34,dobermen,NA,higher_degree,big,NA,English,male,16252,You and your friend see the following:,13,1618261337342,NA,dogs1_rescue,It is big relative to other,1,NA,congruent,custom_main_text1,big,Your friend says: <br/><b>That's a big doberman.</b>
2869,What do you think your friend is saying it is big relative to?,Mon Apr 12 2021 15:02:17 GMT-0600 (Mountain Daylight Time),images/great-dane_filler.png,images/dog-parade-basic2_filler.png,41,filler,No.,0,dogs2,susan,NA,Great Danes,dogs,yes,Your friend points to something in the distance (not shown).,NA,subj,prize-winner,Great Dane,34,Great,NA,higher_degree,big,NA,English,male,9594,You and your friend see the following:,14,1618261337342,NA,dogs2_prize,It is big relative to other,1,NA,congruent,custom_main_text1,big,Your friend says: <br/><b>That Great Dane is big.</b>
2869,What do you think your friend is saying it is small relative to?,Mon Apr 12 2021 15:02:17 GMT-0600 (Mountain Daylight Time),images/chihuahua-rescue.png,images/dog-parade-basic-rescue.png,41,critical,No.,0,dogs1,susan,NA,dogs,chihuahuas,yes,Your friend points to something in the distance (not shown).,NA,subj,rescue,chihuahua,34,chihuahuas,NA,higher_degree,small,NA,English,male,5202,You visit your friend who works at an animal shelter and you see the following:,15,1618261337342,NA,dogs1_rescue,It is small relative to other,1,NA,congruent,custom_main_text1,small,Your friend says: <br/><b>That small chihuahua is a rescue.</b>
2869,What do you think your friend is saying it is small relative to?,Mon Apr 12 2021 15:02:17 GMT-0600 (Mountain Daylight Time),images/pug.png,images/dog-parade-basic2.png,41,critical,No.,0,dogs2,susan,NA,dogs,pugs,yes,Your friend points to something in the distance (not shown).,NA,pred,prize-winner,pug,34,pugs,NA,higher_degree,small,NA,English,male,11830,You and your friend are at a pet show and you see the following:,16,1618261337342,NA,dogs2_prize,It is small relative to other,1,NA,congruent,custom_main_text1,small,Your friend says: <br/><b>That prize-winner is a small pug.</b>
2868,<i>What do you think Speaker A meant? </i>,Mon Apr 12 2021 14:10:56 GMT-0700 (Pacific Daylight Time),NA,NA,41,NA,No glitches,0,NA,Sarah,1,NA,NA,confused,NA,"<b> Speaker A: ""The Empire State Building is tall.""</b>",NA,NA,NA,57,buildings,"I still don't understand the ""(Not shown)"" in the description",higher_degree,NA,comp_class_warmup,English,male,NA,In the main trials you will be asked to rephrase something a person said. The utterance will contain a word that is <i>relative</i> and your task is to figure out what it is relative to. <br /> <br /> For example: <br />,1,1618261856456,1,NA,The Empire State Building is tall relative to other,0.5,"buildings, skyscrapers, houses, constructions (choose one)",NA,comp_class_warmup,NA,NA
2868,What do you think your friend is saying it is big relative to?,Mon Apr 12 2021 14:10:56 GMT-0700 (Pacific Daylight Time),images/doberman-rescue.png,images/dog-parade-basic-rescue.png,41,critical,No glitches,0,dogs1,Sarah,NA,dogs,dobermen,confused,Your friend points to something in the distance (not shown).,NA,pred,rescue,doberman,57,dobermen,"I still don't understand the ""(Not shown)"" in the description",higher_degree,big,NA,English,male,28390,You visit your friend who works at an animal shelter and you see the following:,1,1618261856456,NA,dogs1_rescue,It is big relative to other,0.5,NA,congruent,custom_main_text1,big,Your friend says: <br/><b>That rescue is a big doberman.</b>
2868,What do you think your friend is saying it is big relative to?,Mon Apr 12 2021 14:10:56 GMT-0700 (Pacific Daylight Time),images/sunflower_filler.png,images/flower-parade-basic_filler.png,41,filler,No glitches,0,flowers,Sarah,NA,sunflowers,flowers,confused,Your friend points to something in the distance (not shown).,NA,subj,present,sunflower,57,sunflowers,"I still don't understand the ""(Not shown)"" in the description",higher_degree,big,NA,English,male,17596,You and your friend see the following:,2,1618261856456,NA,flowers_present,It is big relative to other,0.5,NA,congruent,custom_main_text1,big,Your friend says: <br/><b>That sunflower is big.</b>
2868,What do you think your friend is saying it is big relative to?,Mon Apr 12 2021 14:10:56 GMT-0700 (Pacific Daylight Time),images/great-dane-gift.png,images/dog-parade-basic2-gift.png,41,critical,No glitches,0,dogs2,Sarah,NA,Great Danes,dogs,confused,Your friend points to something in the distance (not shown).,NA,pred,present,Great Dane,57,Great,"I still don't understand the ""(Not shown)"" in the description",higher_degree,big,NA,English,male,20893,You and your friend are at a pet store and you see the following:,3,1618261856456,NA,dogs2_present,It is big relative to other,0.5,NA,congruent,custom_main_text1,big,Your friend says: <br/><b>That present is a big Great Dane.</b>
2868,What do you think your friend is saying it is small relative to?,Mon Apr 12 2021 14:10:56 GMT-0700 (Pacific Daylight Time),images/chihuahua_filler.png,images/dog-parade-basic_filler.png,41,filler,No glitches,0,dogs1,Sarah,NA,chihuahuas,dogs,confused,Your friend points to something in the distance (not shown).,NA,subj,rescue,chihuahua,57,chihuahuas,"I still don't understand the ""(Not shown)"" in the description",higher_degree,small,NA,English,male,11321,You and your friend see the following:,4,1618261856456,NA,dogs1_rescue,It is small relative to other,0.5,NA,congruent,custom_main_text1,small,Your friend says: <br/><b>That chihuahua is small.</b>
2868,What do you think your friend is saying it is small relative to?,Mon Apr 12 2021 14:10:56 GMT-0700 (Pacific Daylight Time),images/chihuahua.png,images/dog-parade-basic.png,41,critical,No glitches,0,dogs1,Sarah,NA,chihuahuas,dogs,confused,Your friend points to something in the distance (not shown).,NA,subj,service-animal,chihuahua,57,chihuahuas,"I still don't understand the ""(Not shown)"" in the description",higher_degree,small,NA,English,male,15684,You and your friend are at an animal training ground and you see the following:,5,1618261856456,NA,dogs1_service,It is small relative to other,0.5,NA,congruent,custom_main_text1,small,Your friend says: <br/><b>That small chihuahua is a service-animal.</b>
2868,What do you think your friend is saying it is small relative to?,Mon Apr 12 2021 14:10:56 GMT-0700 (Pacific Daylight Time),images/pug_filler.png,images/dog-parade-basic2_filler.png,41,filler,No glitches,0,dogs2,Sarah,NA,pugs,dogs,confused,Your friend points to something in the distance (not shown).,NA,subj,present,pug,57,dogs,"I still don't understand the ""(Not shown)"" in the description",higher_degree,small,NA,English,male,9392,You and your friend see the following:,6,1618261856456,NA,dogs2_present,It is small relative to other,0.5,NA,congruent,custom_main_text1,small,Your friend says: <br/><b>That pug is small.</b>
2868,What do you think your friend is saying it is big relative to?,Mon Apr 12 2021 14:10:56 GMT-0700 (Pacific Daylight Time),images/great-dane.png,images/dog-parade-basic2.png,41,critical,No glitches,0,dogs2,Sarah,NA,dogs,Great Danes,confused,Your friend points to something in the distance (not shown).,NA,subj,prize-winner,Great Dane,57,Great,"I still don't understand the ""(Not shown)"" in the description",higher_degree,big,NA,English,male,7178,You and your friend are at a pet show and you see the following:,7,1618261856456,NA,dogs2_prize,It is big relative to other,0.5,NA,congruent,custom_main_text1,big,Your friend says: <br/><b>That big Great Dane is a prize-winner.</b>
2868,What do you think your friend is saying it is big relative to?,Mon Apr 12 2021 14:10:56 GMT-0700 (Pacific Daylight Time),images/sunflower_filler.png,images/flower-parade-basic_filler.png,41,filler,No glitches,0,flowers,Sarah,NA,flowers,sunflowers,confused,Your friend points to something in the distance (not shown).,NA,pred,landmark,sunflower,57,flowers,"I still don't understand the ""(Not shown)"" in the description",higher_degree,big,NA,English,male,17202,You and your friend see the following:,8,1618261856456,NA,flowers_landmark,It is big relative to other,0.5,NA,congruent,custom_main_text1,big,Your friend says: <br/><b>That's a big sunflower.</b>
2868,What do you think your friend is saying it is small relative to?,Mon Apr 12 2021 14:10:56 GMT-0700 (Pacific Daylight Time),images/dandelion.png,images/flower-parade-basic.png,41,critical,No glitches,0,flowers,Sarah,NA,dandelions,flowers,confused,Your friend points to something in the distance (not shown).,NA,pred,present,dandelion,57,dandelions,"I still don't understand the ""(Not shown)"" in the description",higher_degree,small,NA,English,male,20909,You and your friend are at a garden store and you see the following:,9,1618261856456,NA,flowers_present,It is small relative to other,0.5,NA,congruent,custom_main_text1,small,Your friend says: <br/><b>That present is a small dandelion.</b>
2868,What do you think your friend is saying it is big relative to?,Mon Apr 12 2021 14:10:56 GMT-0700 (Pacific Daylight Time),images/doberman_filler.png,images/dog-parade-basic_filler.png,41,filler,No glitches,0,dogs1,Sarah,NA,dobermen,dogs,confused,Your friend points to something in the distance (not shown).,NA,pred,service-animal,doberman,57,dobermen,"I still don't understand the ""(Not shown)"" in the description",higher_degree,big,NA,English,male,9890,You and your friend see the following:,10,1618261856456,NA,dogs1_service,It is big relative to other,0.5,NA,congruent,custom_main_text1,big,Your friend says: <br/><b>That's a big doberman.</b>
2868,What do you think your friend is saying it is big relative to?,Mon Apr 12 2021 14:10:56 GMT-0700 (Pacific Daylight Time),images/redwood_sign.png,images/tree-parade-basic.png,41,critical,No glitches,0,trees,Sarah,NA,redwoods,trees,confused,Your friend points to something in the distance (not shown).,NA,subj,landmark,redwood,57,redwoods,"I still don't understand the ""(Not shown)"" in the description",higher_degree,big,NA,English,male,10106,You and your friend walk to your friend's cabin in a park for the first time. You want to memorize the path and you see the following:,11,1618261856456,NA,trees_landmark,It is big relative to other,0.5,NA,congruent,custom_main_text1,big,Your friend says: <br/><b>That big redwood is a landmark.</b>
2868,What do you think your friend is saying it is small relative to?,Mon Apr 12 2021 14:10:56 GMT-0700 (Pacific Daylight Time),images/pug_filler.png,images/dog-parade-basic2_filler.png,41,filler,No glitches,0,dogs2,Sarah,NA,dogs,pugs,confused,Your friend points to something in the distance (not shown).,NA,pred,prize-winner,pug,57,dogs,"I still don't understand the ""(Not shown)"" in the description",higher_degree,small,NA,English,male,7319,You and your friend see the following:,12,1618261856456,NA,dogs2_prize,It is small relative to other,0.5,NA,congruent,custom_main_text1,small,Your friend says: <br/><b>That's a small pug.</b>
2868,What do you think your friend is saying it is small relative to?,Mon Apr 12 2021 14:10:56 GMT-0700 (Pacific Daylight Time),images/clownfish_net.png,images/fish-parade-basic.png,41,critical,No glitches,0,fish,Sarah,NA,fish,clownfish,confused,Your friend points to something in the distance (not shown).,NA,pred,rescue,clownfish,57,fish,"I still don't understand the ""(Not shown)"" in the description",higher_degree,small,NA,English,male,11733,You visit your friend who works as a marine biologist and you see the following:,13,1618261856456,NA,fish_rescue,It is small relative to other,0.5,NA,congruent,custom_main_text1,small,Your friend says: <br/><b>That rescue is a small clownfish.</b>
2868,What do you think your friend is saying it is small relative to?,Mon Apr 12 2021 14:10:56 GMT-0700 (Pacific Daylight Time),images/bonsai_filler.png,images/tree-parade-basic_filler.png,41,filler,No glitches,0,trees,Sarah,NA,trees,bonsais,confused,Your friend points to something in the distance (not shown).,NA,pred,landmark,bonsai,57,bonsais,"I still don't understand the ""(Not shown)"" in the description",higher_degree,small,NA,English,male,16498,You and your friend see the following:,14,1618261856456,NA,trees_landmark,It is small relative to other,0.5,NA,congruent,custom_main_text1,small,Your friend says: <br/><b>That's a small bonsai.</b>
2868,What do you think your friend is saying it is big relative to?,Mon Apr 12 2021 14:10:56 GMT-0700 (Pacific Daylight Time),images/tuna_filler.png,images/fish-parade-basic_filler.png,41,filler,No glitches,0,fish,Sarah,NA,fish,tunas,confused,Your friend points to something in the distance (not shown).,NA,subj,rescue,tuna,57,fish,"I still don't understand the ""(Not shown)"" in the description",higher_degree,big,NA,English,male,6525,You and your friend see the following:,15,1618261856456,NA,fish_rescue,It is big relative to other,0.5,NA,congruent,custom_main_text1,big,Your friend says: <br/><b>That tuna is big.</b>
2868,What do you think your friend is saying it is small relative to?,Mon Apr 12 2021 14:10:56 GMT-0700 (Pacific Daylight Time),images/dandelion-landmark.png,images/flower-parade-basic-landmark.png,41,critical,No glitches,0,flowers,Sarah,NA,flowers,dandelions,confused,Your friend points to something in the distance (not shown).,NA,subj,landmark,dandelion,57,dandelions,"I still don't understand the ""(Not shown)"" in the description",higher_degree,small,NA,English,male,9021,You and your friend walk to a cabin you are renting for the weekend for the first time. You go along the path and you see the following:,16,1618261856456,NA,flowers_landmark,It is small relative to other,0.5,NA,congruent,custom_main_text1,small,Your friend says: <br/><b>That small dandelion is a landmark.</b>
2867,<i>What do you think Speaker A meant? </i>,Mon Apr 12 2021 16:08:20 GMT-0500 (Central Daylight Time),NA,NA,41,NA,n/a,1,NA,barbara,1,NA,NA,yes,NA,"<b> Speaker A: ""The Empire State Building is tall.""</b>",NA,NA,NA,20,buildings,n/a,graduated_high_school,NA,comp_class_warmup,English,female,NA,In the main trials you will be asked to rephrase something a person said. The utterance will contain a word that is <i>relative</i> and your task is to figure out what it is relative to. <br /> <br /> For example: <br />,1,1618261700896,1,NA,The Empire State Building is tall relative to other,1,"buildings, skyscrapers, houses, constructions (choose one)",NA,comp_class_warmup,NA,NA
2867,What do you think your friend is saying it is small relative to?,Mon Apr 12 2021 16:08:20 GMT-0500 (Central Daylight Time),images/dandelion.png,images/flower-parade-basic.png,41,critical,n/a,1,flowers,barbara,NA,flowers,dandelions,yes,Your friend points to something in the distance (not shown).,NA,pred,present,dandelion,20,flowers,n/a,graduated_high_school,small,NA,English,female,10434,You and your friend are at a garden store and you see the following:,1,1618261700896,NA,flowers_present,It is small relative to other,1,NA,congruent,custom_main_text1,small,Your friend says: <br/><b>That present is a small dandelion.</b>
2867,What do you think your friend is saying it is small relative to?,Mon Apr 12 2021 16:08:20 GMT-0500 (Central Daylight Time),images/clownfish_net.png,images/fish-parade-basic.png,41,critical,n/a,1,fish,barbara,NA,fish,clownfish,yes,Your friend points to something in the distance (not shown).,NA,subj,rescue,clownfish,20,clownfish,n/a,graduated_high_school,small,NA,English,female,14069,You visit your friend who works as a marine biologist and you see the following:,2,1618261700896,NA,fish_rescue,It is small relative to other,1,NA,congruent,custom_main_text1,small,Your friend says: <br/><b>That small clownfish is a rescue.</b>
2867,What do you think your friend is saying it is big relative to?,Mon Apr 12 2021 16:08:20 GMT-0500 (Central Daylight Time),images/tuna_filler.png,images/fish-parade-basic_filler.png,41,filler,n/a,1,fish,barbara,NA,tunas,fish,yes,Your friend points to something in the distance (not shown).,NA,pred,rescue,tuna,20,tunas,n/a,graduated_high_school,big,NA,English,female,14878,You and your friend see the following:,3,1618261700896,NA,fish_rescue,It is big relative to other,1,NA,congruent,custom_main_text1,big,Your friend says: <br/><b>That's a big tuna.</b>
2867,What do you think your friend is saying it is small relative to?,Mon Apr 12 2021 16:08:20 GMT-0500 (Central Daylight Time),images/chihuahua_filler.png,images/dog-parade-basic_filler.png,41,filler,n/a,1,dogs1,barbara,NA,chihuahuas,dogs,yes,Your friend points to something in the distance (not shown).,NA,subj,rescue,chihuahua,20,dogs,n/a,graduated_high_school,small,NA,English,female,9008,You and your friend see the following:,4,1618261700896,NA,dogs1_rescue,It is small relative to other,1,NA,congruent,custom_main_text1,small,Your friend says: <br/><b>That chihuahua is small.</b>
2867,What do you think your friend is saying it is small relative to?,Mon Apr 12 2021 16:08:20 GMT-0500 (Central Daylight Time),images/stripmall-landmark.png,images/buildings-parade-basic.png,41,critical,n/a,1,buildings,barbara,NA,stripmalls,buildings,yes,Your friend points to something in the distance (not shown).,NA,subj,landmark,stripmall,20,stripmalls,n/a,graduated_high_school,small,NA,English,female,14564,You visit your friend who lives in another city. You take a walk and you see the following:,5,1618261700896,NA,buildings_landmark,It is small relative to other,1,NA,congruent,custom_main_text1,small,Your friend says: <br/><b>That small stripmall is a landmark.</b>
2867,What do you think your friend is saying it is big relative to?,Mon Apr 12 2021 16:08:20 GMT-0500 (Central Daylight Time),images/doberman-rescue.png,images/dog-parade-basic-rescue.png,41,critical,n/a,1,dogs1,barbara,NA,dobermen,dogs,yes,Your friend points to something in the distance (not shown).,NA,pred,rescue,doberman,20,dogs,n/a,graduated_high_school,big,NA,English,female,13373,You visit your friend who works at an animal shelter and you see the following:,6,1618261700896,NA,dogs1_rescue,It is big relative to other,1,NA,congruent,custom_main_text1,big,Your friend says: <br/><b>That rescue is a big doberman.</b>
2867,What do you think your friend is saying it is small relative to?,Mon Apr 12 2021 16:08:20 GMT-0500 (Central Daylight Time),images/bonsai_filler.png,images/tree-parade-basic_filler.png,41,filler,n/a,1,trees,barbara,NA,bonsais,trees,yes,Your friend points to something in the distance (not shown).,NA,pred,landmark,bonsai,20,bonsais,n/a,graduated_high_school,small,NA,English,female,18900,You and your friend see the following:,7,1618261700896,NA,trees_landmark,It is small relative to other,1,NA,congruent,custom_main_text1,small,Your friend says: <br/><b>That's a small bonsai.</b>
2867,What do you think your friend is saying it is big relative to?,Mon Apr 12 2021 16:08:20 GMT-0500 (Central Daylight Time),images/doberman.png,images/dog-parade-basic.png,41,critical,n/a,1,dogs1,barbara,NA,dogs,dobermen,yes,Your friend points to something in the distance (not shown).,NA,subj,service-animal,doberman,20,dobermen,n/a,graduated_high_school,big,NA,English,female,16597,You and your friend are at an animal training ground and you see the following:,8,1618261700896,NA,dogs1_service,It is big relative to other,1,NA,congruent,custom_main_text1,big,Your friend says: <br/><b>That big doberman is a service-animal.</b>
2867,What do you think your friend is saying it is big relative to?,Mon Apr 12 2021 16:08:20 GMT-0500 (Central Daylight Time),images/sunflower_filler.png,images/flower-parade-basic_filler.png,41,filler,n/a,1,flowers,barbara,NA,flowers,sunflowers,yes,Your friend points to something in the distance (not shown).,NA,subj,present,sunflower,20,flowers,n/a,graduated_high_school,big,NA,English,female,18524,You and your friend see the following:,9,1618261700896,NA,flowers_present,It is big relative to other,1,NA,congruent,custom_main_text1,big,Your friend says: <br/><b>That sunflower is big.</b>
2867,What do you think your friend is saying it is big relative to?,Mon Apr 12 2021 16:08:20 GMT-0500 (Central Daylight Time),images/great-dane-gift.png,images/dog-parade-basic2-gift.png,41,critical,n/a,1,dogs2,barbara,NA,dogs,Great Danes,yes,Your friend points to something in the distance (not shown).,NA,pred,present,Great Dane,20,Great,n/a,graduated_high_school,big,NA,English,female,7509,You and your friend are at a pet store and you see the following:,10,1618261700896,NA,dogs2_present,It is big relative to other,1,NA,congruent,custom_main_text1,big,Your friend says: <br/><b>That present is a big Great Dane.</b>
2867,What do you think your friend is saying it is big relative to?,Mon Apr 12 2021 16:08:20 GMT-0500 (Central Daylight Time),images/skyscraper-landmark-filler.png,images/buildings-parade-basic_filler.png,41,filler,n/a,1,buildings,barbara,NA,buildings,skyscrapers,yes,Your friend points to something in the distance (not shown).,NA,pred,landmark,skyscraper,20,skyscrapers,n/a,graduated_high_school,big,NA,English,female,11875,You and your friend see the following:,11,1618261700896,NA,buildings_landmark,It is big relative to other,1,NA,congruent,custom_main_text1,big,Your friend says: <br/><b>That's a big skyscraper.</b>
2867,What do you think your friend is saying it is big relative to?,Mon Apr 12 2021 16:08:20 GMT-0500 (Central Daylight Time),images/redwood_sign.png,images/tree-parade-basic.png,41,critical,n/a,1,trees,barbara,NA,redwoods,trees,yes,Your friend points to something in the distance (not shown).,NA,subj,landmark,redwood,20,trees,n/a,graduated_high_school,big,NA,English,female,26619,You and your friend walk to your friend's cabin in a park for the first time. You want to memorize the path and you see the following:,12,1618261700896,NA,trees_landmark,It is big relative to other,1,NA,congruent,custom_main_text1,big,Your friend says: <br/><b>That big redwood is a landmark.</b>
2867,What do you think your friend is saying it is big relative to?,Mon Apr 12 2021 16:08:20 GMT-0500 (Central Daylight Time),images/sunflower_filler.png,images/flower-parade-basic_filler.png,41,filler,n/a,1,flowers,barbara,NA,flowers,sunflowers,yes,Your friend points to something in the distance (not shown).,NA,subj,landmark,sunflower,20,sunflowers,n/a,graduated_high_school,big,NA,English,female,6571,You and your friend see the following:,13,1618261700896,NA,flowers_landmark,It is big relative to other,1,NA,congruent,custom_main_text1,big,Your friend says: <br/><b>That sunflower is big.</b>
2867,What do you think your friend is saying it is small relative to?,Mon Apr 12 2021 16:08:20 GMT-0500 (Central Daylight Time),images/chihuahua_filler.png,images/dog-parade-basic_filler.png,41,filler,n/a,1,dogs1,barbara,NA,dogs,chihuahuas,yes,Your friend points to something in the distance (not shown).,NA,pred,service-animal,chihuahua,20,dogs,n/a,graduated_high_school,small,NA,English,female,5118,You and your friend see the following:,14,1618261700896,NA,dogs1_service,It is small relative to other,1,NA,congruent,custom_main_text1,small,Your friend says: <br/><b>That's a small chihuahua.</b>
2867,What do you think your friend is saying it is small relative to?,Mon Apr 12 2021 16:08:20 GMT-0500 (Central Daylight Time),images/pug_filler.png,images/dog-parade-basic2_filler.png,41,filler,n/a,1,dogs2,barbara,NA,dogs,pugs,yes,Your friend points to something in the distance (not shown).,NA,subj,present,pug,20,dogs,n/a,graduated_high_school,small,NA,English,female,3228,You and your friend see the following:,15,1618261700896,NA,dogs2_present,It is small relative to other,1,NA,congruent,custom_main_text1,small,Your friend says: <br/><b>That pug is small.</b>
2867,What do you think your friend is saying it is small relative to?,Mon Apr 12 2021 16:08:20 GMT-0500 (Central Daylight Time),images/dandelion-landmark.png,images/flower-parade-basic-landmark.png,41,critical,n/a,1,flowers,barbara,NA,flowers,dandelions,yes,Your friend points to something in the distance (not shown).,NA,pred,landmark,dandelion,20,flowers,n/a,graduated_high_school,small,NA,English,female,54350,You and your friend walk to a cabin you are renting for the weekend for the first time. You go along the path and you see the following:,16,1618261700896,NA,flowers_landmark,It is small relative to other,1,NA,congruent,custom_main_text1,small,Your friend says: <br/><b>That landmark is a small dandelion.</b>
2866,<i>What do you think Speaker A meant? </i>,Mon Apr 12 2021 17:11:05 GMT-0400 (Eastern Daylight Time),NA,NA,41,NA,NA,1,NA,barbara,1,NA,NA,yes,NA,"<b> Speaker A: ""The Empire State Building is tall.""</b>",NA,NA,NA,42,buildings,NA,higher_degree,NA,comp_class_warmup,English,male,NA,In the main trials you will be asked to rephrase something a person said. The utterance will contain a word that is <i>relative</i> and your task is to figure out what it is relative to. <br /> <br /> For example: <br />,1,1618261865492,1,NA,The Empire State Building is tall relative to other,1,"buildings, skyscrapers, houses, constructions (choose one)",NA,comp_class_warmup,NA,NA
2866,What do you think your friend is saying it is small relative to?,Mon Apr 12 2021 17:11:05 GMT-0400 (Eastern Daylight Time),images/bonsai_filler.png,images/tree-parade-basic_filler.png,41,filler,NA,1,trees,barbara,NA,bonsais,trees,yes,Your friend points to something in the distance (not shown).,NA,pred,landmark,bonsai,42,bonsais,NA,higher_degree,small,NA,English,male,16353,You and your friend see the following:,1,1618261865492,NA,trees_landmark,It is small relative to other,1,NA,congruent,custom_main_text1,small,Your friend says: <br/><b>That's a small bonsai.</b>
2866,What do you think your friend is saying it is big relative to?,Mon Apr 12 2021 17:11:05 GMT-0400 (Eastern Daylight Time),images/doberman_filler.png,images/dog-parade-basic_filler.png,41,filler,NA,1,dogs1,barbara,NA,dogs,dobermen,yes,Your friend points to something in the distance (not shown).,NA,subj,rescue,doberman,42,dogs,NA,higher_degree,big,NA,English,male,5934,You and your friend see the following:,2,1618261865492,NA,dogs1_rescue,It is big relative to other,1,NA,congruent,custom_main_text1,big,Your friend says: <br/><b>That doberman is big.</b>
2866,What do you think your friend is saying it is big relative to?,Mon Apr 12 2021 17:11:05 GMT-0400 (Eastern Daylight Time),images/eagle.png,images/bird-parade-basic.png,41,critical,NA,1,birds,barbara,NA,birds,eagles,yes,Your friend points to something in the distance (not shown).,NA,pred,rescue,eagle,42,eagles,NA,higher_degree,big,NA,English,male,14672,You visit your friend who works at an animal shelter and you see the following:,3,1618261865492,NA,birds_rescue,It is big relative to other,1,NA,congruent,custom_main_text1,big,Your friend says: <br/><b>That rescue is a big eagle.</b>
2866,What do you think your friend is saying it is big relative to?,Mon Apr 12 2021 17:11:05 GMT-0400 (Eastern Daylight Time),images/great-dane_filler.png,images/dog-parade-basic2_filler.png,41,filler,NA,1,dogs2,barbara,NA,Great Danes,dogs,yes,Your friend points to something in the distance (not shown).,NA,subj,present,Great Dane,42,dogs,NA,higher_degree,big,NA,English,male,5797,You and your friend see the following:,4,1618261865492,NA,dogs2_present,It is big relative to other,1,NA,congruent,custom_main_text1,big,Your friend says: <br/><b>That Great Dane is big.</b>
2866,What do you think your friend is saying it is big relative to?,Mon Apr 12 2021 17:11:05 GMT-0400 (Eastern Daylight Time),images/tuna_net.png,images/fish-parade-basic.png,41,critical,NA,1,fish,barbara,NA,tunas,fish,yes,Your friend points to something in the distance (not shown).,NA,pred,rescue,tuna,42,tunas,NA,higher_degree,big,NA,English,male,7968,You visit your friend who works as a marine biologist and you see the following:,5,1618261865492,NA,fish_rescue,It is big relative to other,1,NA,congruent,custom_main_text1,big,Your friend says: <br/><b>That rescue is a big tuna.</b>
2866,What do you think your friend is saying it is small relative to?,Mon Apr 12 2021 17:11:05 GMT-0400 (Eastern Daylight Time),images/hummingbird_filler.png,images/bird-parade-basic_filler.png,41,filler,NA,1,birds,barbara,NA,birds,hummingbirds,yes,Your friend points to something in the distance (not shown).,NA,subj,rescue,hummingbird,42,birds,NA,higher_degree,small,NA,English,male,4901,You and your friend see the following:,6,1618261865492,NA,birds_rescue,It is small relative to other,1,NA,congruent,custom_main_text1,small,Your friend says: <br/><b>That hummingbird is small.</b>
2866,What do you think your friend is saying it is big relative to?,Mon Apr 12 2021 17:11:05 GMT-0400 (Eastern Daylight Time),images/sunflower-landmark.png,images/flower-parade-basic-landmark.png,41,critical,NA,1,flowers,barbara,NA,sunflowers,flowers,yes,Your friend points to something in the distance (not shown).,NA,subj,landmark,sunflower,42,sunflowers,NA,higher_degree,big,NA,English,male,12684,You and your friend walk to a cabin you are renting for the weekend for the first time. You go along the path and you see the following:,7,1618261865492,NA,flowers_landmark,It is big relative to other,1,NA,congruent,custom_main_text1,big,Your friend says: <br/><b>That big sunflower is a landmark.</b>
2866,What do you think your friend is saying it is small relative to?,Mon Apr 12 2021 17:11:05 GMT-0400 (Eastern Daylight Time),images/dandelion_filler.png,images/flower-parade-basic_filler.png,41,filler,NA,1,flowers,barbara,NA,dandelions,flowers,yes,Your friend points to something in the distance (not shown).,NA,pred,landmark,dandelion,42,dandelions,NA,higher_degree,small,NA,English,male,5257,You and your friend see the following:,8,1618261865492,NA,flowers_landmark,It is small relative to other,1,NA,congruent,custom_main_text1,small,Your friend says: <br/><b>That's a small dandelion.</b>
2866,What do you think your friend is saying it is small relative to?,Mon Apr 12 2021 17:11:05 GMT-0400 (Eastern Daylight Time),images/chihuahua.png,images/dog-parade-basic.png,41,critical,NA,1,dogs1,barbara,NA,chihuahuas,dogs,yes,Your friend points to something in the distance (not shown).,NA,subj,service-animal,chihuahua,42,dogs,NA,higher_degree,small,NA,English,male,7209,You and your friend are at an animal training ground and you see the following:,9,1618261865492,NA,dogs1_service,It is small relative to other,1,NA,congruent,custom_main_text1,small,Your friend says: <br/><b>That small chihuahua is a service-animal.</b>
2866,What do you think your friend is saying it is big relative to?,Mon Apr 12 2021 17:11:05 GMT-0400 (Eastern Daylight Time),images/doberman_filler.png,images/dog-parade-basic_filler.png,41,filler,NA,1,dogs1,barbara,NA,dobermen,dogs,yes,Your friend points to something in the distance (not shown).,NA,pred,service-animal,doberman,42,dobermen,NA,higher_degree,big,NA,English,male,4890,You and your friend see the following:,10,1618261865492,NA,dogs1_service,It is big relative to other,1,NA,congruent,custom_main_text1,big,Your friend says: <br/><b>That's a big doberman.</b>
2866,What do you think your friend is saying it is small relative to?,Mon Apr 12 2021 17:11:05 GMT-0400 (Eastern Daylight Time),images/clownfish_filler.png,images/fish-parade-basic_filler.png,41,filler,NA,1,fish,barbara,NA,fish,clownfish,yes,Your friend points to something in the distance (not shown).,NA,subj,rescue,clownfish,42,fish,NA,higher_degree,small,NA,English,male,6076,You and your friend see the following:,11,1618261865492,NA,fish_rescue,It is small relative to other,1,NA,congruent,custom_main_text1,small,Your friend says: <br/><b>That clownfish is small.</b>
2866,What do you think your friend is saying it is big relative to?,Mon Apr 12 2021 17:11:05 GMT-0400 (Eastern Daylight Time),images/redwood_sign.png,images/tree-parade-basic.png,41,critical,NA,1,trees,barbara,NA,trees,redwoods,yes,Your friend points to something in the distance (not shown).,NA,subj,landmark,redwood,42,trees,NA,higher_degree,big,NA,English,male,6454,You and your friend walk to your friend's cabin in a park for the first time. You want to memorize the path and you see the following:,12,1618261865492,NA,trees_landmark,It is big relative to other,1,NA,congruent,custom_main_text1,big,Your friend says: <br/><b>That big redwood is a landmark.</b>
2866,What do you think your friend is saying it is small relative to?,Mon Apr 12 2021 17:11:05 GMT-0400 (Eastern Daylight Time),images/chihuahua-rescue.png,images/dog-parade-basic-rescue.png,41,critical,NA,1,dogs1,barbara,NA,chihuahuas,dogs,yes,Your friend points to something in the distance (not shown).,NA,pred,rescue,chihuahua,42,dogs,NA,higher_degree,small,NA,English,male,8139,You visit your friend who works at an animal shelter and you see the following:,13,1618261865492,NA,dogs1_rescue,It is small relative to other,1,NA,congruent,custom_main_text1,small,Your friend says: <br/><b>That rescue is a small chihuahua.</b>
2866,What do you think your friend is saying it is small relative to?,Mon Apr 12 2021 17:11:05 GMT-0400 (Eastern Daylight Time),images/stripmall-landmark.png,images/buildings-parade-basic.png,41,critical,NA,1,buildings,barbara,NA,buildings,stripmalls,yes,Your friend points to something in the distance (not shown).,NA,subj,landmark,stripmall,42,stripmalls,NA,higher_degree,small,NA,English,male,9732,You visit your friend who lives in another city. You take a walk and you see the following:,14,1618261865492,NA,buildings_landmark,It is small relative to other,1,NA,congruent,custom_main_text1,small,Your friend says: <br/><b>That small stripmall is a landmark.</b>
2866,What do you think your friend is saying it is big relative to?,Mon Apr 12 2021 17:11:05 GMT-0400 (Eastern Daylight Time),images/skyscraper-landmark-filler.png,images/buildings-parade-basic_filler.png,41,filler,NA,1,buildings,barbara,NA,buildings,skyscrapers,yes,Your friend points to something in the distance (not shown).,NA,pred,landmark,skyscraper,42,buildings,NA,higher_degree,big,NA,English,male,7370,You and your friend see the following:,15,1618261865492,NA,buildings_landmark,It is big relative to other,1,NA,congruent,custom_main_text1,big,Your friend says: <br/><b>That's a big skyscraper.</b>
2866,What do you think your friend is saying it is small relative to?,Mon Apr 12 2021 17:11:05 GMT-0400 (Eastern Daylight Time),images/pug-gift.png,images/dog-parade-basic2-gift.png,41,critical,NA,1,dogs2,barbara,NA,dogs,pugs,yes,Your friend points to something in the distance (not shown).,NA,pred,present,pug,42,dogs,NA,higher_degree,small,NA,English,male,5859,You and your friend are at a pet store and you see the following:,16,1618261865492,NA,dogs2_present,It is small relative to other,1,NA,congruent,custom_main_text1,small,Your friend says: <br/><b>That present is a small pug.</b>
2865,<i>What do you think Speaker A meant? </i>,Mon Apr 12 2021 17:10:23 GMT-0400 (Eastern Daylight Time),NA,NA,41,NA,NA,1,NA,jessica,1,NA,NA,yes,NA,"<b> Speaker A: ""The Empire State Building is tall.""</b>",NA,NA,NA,30,buildings,NA,graduated_college,NA,comp_class_warmup,English,male,NA,In the main trials you will be asked to rephrase something a person said. The utterance will contain a word that is <i>relative</i> and your task is to figure out what it is relative to. <br /> <br /> For example: <br />,1,1618261823757,1,NA,The Empire State Building is tall relative to other,0.75,"buildings, skyscrapers, houses, constructions (choose one)",NA,comp_class_warmup,NA,NA
2865,What do you think your friend is saying it is big relative to?,Mon Apr 12 2021 17:10:23 GMT-0400 (Eastern Daylight Time),images/great-dane_filler.png,images/dog-parade-basic2_filler.png,41,filler,NA,1,dogs2,jessica,NA,Great Danes,dogs,yes,Your friend points to something in the distance (not shown).,NA,subj,prize-winner,Great Dane,30,dogs,NA,graduated_college,big,NA,English,male,8214,You and your friend see the following:,1,1618261823757,NA,dogs2_prize,It is big relative to other,0.75,NA,congruent,custom_main_text1,big,Your friend says: <br/><b>That Great Dane is big.</b>
2865,What do you think your friend is saying it is small relative to?,Mon Apr 12 2021 17:10:23 GMT-0400 (Eastern Daylight Time),images/hummingbird.png,images/bird-parade-basic.png,41,critical,NA,1,birds,jessica,NA,hummingbirds,birds,yes,Your friend points to something in the distance (not shown).,NA,subj,rescue,hummingbird,30,birds,NA,graduated_college,small,NA,English,male,18692,You visit your friend who works at an animal shelter and you see the following:,2,1618261823757,NA,birds_rescue,It is small relative to other,0.75,NA,congruent,custom_main_text1,small,Your friend says: <br/><b>That small hummingbird is a rescue.</b>
2865,What do you think your friend is saying it is small relative to?,Mon Apr 12 2021 17:10:23 GMT-0400 (Eastern Daylight Time),images/chihuahua_filler.png,images/dog-parade-basic_filler.png,41,filler,NA,1,dogs1,jessica,NA,dogs,chihuahuas,yes,Your friend points to something in the distance (not shown).,NA,subj,rescue,chihuahua,30,dogs,NA,graduated_college,small,NA,English,male,4231,You and your friend see the following:,3,1618261823757,NA,dogs1_rescue,It is small relative to other,0.75,NA,congruent,custom_main_text1,small,Your friend says: <br/><b>That chihuahua is small.</b>
2865,What do you think your friend is saying it is small relative to?,Mon Apr 12 2021 17:10:23 GMT-0400 (Eastern Daylight Time),images/dandelion.png,images/flower-parade-basic.png,41,critical,NA,1,flowers,jessica,NA,flowers,dandelions,yes,Your friend points to something in the distance (not shown).,NA,pred,present,dandelion,30,flowers,NA,graduated_college,small,NA,English,male,5996,You and your friend are at a garden store and you see the following:,4,1618261823757,NA,flowers_present,It is small relative to other,0.75,NA,congruent,custom_main_text1,small,Your friend says: <br/><b>That present is a small dandelion.</b>
2865,What do you think your friend is saying it is small relative to?,Mon Apr 12 2021 17:10:23 GMT-0400 (Eastern Daylight Time),images/dandelion_filler.png,images/flower-parade-basic_filler.png,41,filler,NA,1,flowers,jessica,NA,dandelions,flowers,yes,Your friend points to something in the distance (not shown).,NA,pred,landmark,dandelion,30,flowers,NA,graduated_college,small,NA,English,male,4957,You and your friend see the following:,5,1618261823757,NA,flowers_landmark,It is small relative to other,0.75,NA,congruent,custom_main_text1,small,Your friend says: <br/><b>That's a small dandelion.</b>
2865,What do you think your friend is saying it is big relative to?,Mon Apr 12 2021 17:10:23 GMT-0400 (Eastern Daylight Time),images/redwood_sign.png,images/tree-parade-basic.png,41,critical,NA,1,trees,jessica,NA,redwoods,trees,yes,Your friend points to something in the distance (not shown).,NA,pred,landmark,redwood,30,trees,NA,graduated_college,big,NA,English,male,4821,You and your friend walk to your friend's cabin in a park for the first time. You want to memorize the path and you see the following:,6,1618261823757,NA,trees_landmark,It is big relative to other,0.75,NA,congruent,custom_main_text1,big,Your friend says: <br/><b>That landmark is a big redwood.</b>
2865,What do you think your friend is saying it is small relative to?,Mon Apr 12 2021 17:10:23 GMT-0400 (Eastern Daylight Time),images/bonsai_filler.png,images/tree-parade-basic_filler.png,41,filler,NA,1,trees,jessica,NA,bonsais,trees,yes,Your friend points to something in the distance (not shown).,NA,subj,landmark,bonsai,30,trees,NA,graduated_college,small,NA,English,male,2719,You and your friend see the following:,7,1618261823757,NA,trees_landmark,It is small relative to other,0.75,NA,congruent,custom_main_text1,small,Your friend says: <br/><b>That bonsai is small.</b>
2865,What do you think your friend is saying it is small relative to?,Mon Apr 12 2021 17:10:23 GMT-0400 (Eastern Daylight Time),images/pug-gift.png,images/dog-parade-basic2-gift.png,41,critical,NA,1,dogs2,jessica,NA,dogs,pugs,yes,Your friend points to something in the distance (not shown).,NA,subj,present,pug,30,dogs,NA,graduated_college,small,NA,English,male,11585,You and your friend are at a pet store and you see the following:,8,1618261823757,NA,dogs2_present,It is small relative to other,0.75,NA,congruent,custom_main_text1,small,Your friend says: <br/><b>That small pug is a present.</b>
2865,What do you think your friend is saying it is big relative to?,Mon Apr 12 2021 17:10:23 GMT-0400 (Eastern Daylight Time),images/eagle_filler.png,images/bird-parade-basic_filler.png,41,filler,NA,1,birds,jessica,NA,eagles,birds,yes,Your friend points to something in the distance (not shown).,NA,pred,rescue,eagle,30,birds,NA,graduated_college,big,NA,English,male,12140,You and your friend see the following:,9,1618261823757,NA,birds_rescue,It is big relative to other,0.75,NA,congruent,custom_main_text1,big,Your friend says: <br/><b>That's a big eagle.</b>
2865,What do you think your friend is saying it is big relative to?,Mon Apr 12 2021 17:10:23 GMT-0400 (Eastern Daylight Time),images/sunflower_filler.png,images/flower-parade-basic_filler.png,41,filler,NA,1,flowers,jessica,NA,sunflowers,flowers,yes,Your friend points to something in the distance (not shown).,NA,subj,present,sunflower,30,flowers,NA,graduated_college,big,NA,English,male,5397,You and your friend see the following:,10,1618261823757,NA,flowers_present,It is big relative to other,0.75,NA,congruent,custom_main_text1,big,Your friend says: <br/><b>That sunflower is big.</b>
2865,What do you think your friend is saying it is small relative to?,Mon Apr 12 2021 17:10:23 GMT-0400 (Eastern Daylight Time),images/pug.png,images/dog-parade-basic2.png,41,critical,NA,1,dogs2,jessica,NA,dogs,pugs,yes,Your friend points to something in the distance (not shown).,NA,pred,prize-winner,pug,30,pugs,NA,graduated_college,small,NA,English,male,13307,You and your friend are at a pet show and you see the following:,11,1618261823757,NA,dogs2_prize,It is small relative to other,0.75,NA,congruent,custom_main_text1,small,Your friend says: <br/><b>That prize-winner is a small pug.</b>
2865,What do you think your friend is saying it is big relative to?,Mon Apr 12 2021 17:10:23 GMT-0400 (Eastern Daylight Time),images/great-dane_filler.png,images/dog-parade-basic2_filler.png,41,filler,NA,1,dogs2,jessica,NA,dogs,Great Danes,yes,Your friend points to something in the distance (not shown).,NA,pred,present,Great Dane,30,dogs,NA,graduated_college,big,NA,English,male,4947,You and your friend see the following:,12,1618261823757,NA,dogs2_present,It is big relative to other,0.75,NA,congruent,custom_main_text1,big,Your friend says: <br/><b>That's a big Great Dane.</b>
2865,What do you think your friend is saying it is big relative to?,Mon Apr 12 2021 17:10:23 GMT-0400 (Eastern Daylight Time),images/sunflower-landmark.png,images/flower-parade-basic-landmark.png,41,critical,NA,1,flowers,jessica,NA,sunflowers,flowers,yes,Your friend points to something in the distance (not shown).,NA,subj,landmark,sunflower,30,sunflowers,NA,graduated_college,big,NA,English,male,11693,You and your friend walk to a cabin you are renting for the weekend for the first time. You go along the path and you see the following:,13,1618261823757,NA,flowers_landmark,It is big relative to other,0.75,NA,congruent,custom_main_text1,big,Your friend says: <br/><b>That big sunflower is a landmark.</b>
2865,What do you think your friend is saying it is small relative to?,Mon Apr 12 2021 17:10:23 GMT-0400 (Eastern Daylight Time),images/clownfish_filler.png,images/fish-parade-basic_filler.png,41,filler,NA,1,fish,jessica,NA,clownfish,fish,yes,Your friend points to something in the distance (not shown).,NA,pred,rescue,clownfish,30,fish,NA,graduated_college,small,NA,English,male,6618,You and your friend see the following:,14,1618261823757,NA,fish_rescue,It is small relative to other,0.75,NA,congruent,custom_main_text1,small,Your friend says: <br/><b>That's a small clownfish.</b>
2865,What do you think your friend is saying it is big relative to?,Mon Apr 12 2021 17:10:23 GMT-0400 (Eastern Daylight Time),images/doberman-rescue.png,images/dog-parade-basic-rescue.png,41,critical,NA,1,dogs1,jessica,NA,dobermen,dogs,yes,Your friend points to something in the distance (not shown).,NA,pred,rescue,doberman,30,dogs,NA,graduated_college,big,NA,English,male,9238,You visit your friend who works at an animal shelter and you see the following:,15,1618261823757,NA,dogs1_rescue,It is big relative to other,0.75,NA,congruent,custom_main_text1,big,Your friend says: <br/><b>That rescue is a big doberman.</b>
2865,What do you think your friend is saying it is big relative to?,Mon Apr 12 2021 17:10:23 GMT-0400 (Eastern Daylight Time),images/tuna_net.png,images/fish-parade-basic.png,41,critical,NA,1,fish,jessica,NA,tunas,fish,yes,Your friend points to something in the distance (not shown).,NA,subj,rescue,tuna,30,fish,NA,graduated_college,big,NA,English,male,7118,You visit your friend who works as a marine biologist and you see the following:,16,1618261823757,NA,fish_rescue,It is big relative to other,0.75,NA,congruent,custom_main_text1,big,Your friend says: <br/><b>That big tuna is a rescue.</b>
2864,<i>What do you think Speaker A meant? </i>,Mon Apr 12 2021 17:07:49 GMT-0400 (Eastern Daylight Time),NA,NA,41,NA,no,1,NA,Susan,1,NA,NA,yes,NA,"<b> Speaker A: ""The Empire State Building is tall.""</b>",NA,NA,NA,58,buildings,NA,graduated_college,NA,comp_class_warmup,English,male,NA,In the main trials you will be asked to rephrase something a person said. The utterance will contain a word that is <i>relative</i> and your task is to figure out what it is relative to. <br /> <br /> For example: <br />,1,1618261669468,1,NA,The Empire State Building is tall relative to other,1,"buildings, skyscrapers, houses, constructions (choose one)",NA,comp_class_warmup,NA,NA
2864,What do you think your friend is saying it is big relative to?,Mon Apr 12 2021 17:07:49 GMT-0400 (Eastern Daylight Time),images/redwood_filler.png,images/tree-parade-basic_filler.png,41,filler,no,1,trees,Susan,NA,redwoods,trees,yes,Your friend points to something in the distance (not shown).,NA,subj,landmark,redwood,58,trees,NA,graduated_college,big,NA,English,male,16622,You and your friend see the following:,1,1618261669468,NA,trees_landmark,It is big relative to other,1,NA,congruent,custom_main_text1,big,Your friend says: <br/><b>That redwood is big.</b>
2864,What do you think your friend is saying it is big relative to?,Mon Apr 12 2021 17:07:49 GMT-0400 (Eastern Daylight Time),images/eagle.png,images/bird-parade-basic.png,41,critical,no,1,birds,Susan,NA,birds,eagles,yes,Your friend points to something in the distance (not shown).,NA,subj,rescue,eagle,58,birds,NA,graduated_college,big,NA,English,male,27800,You visit your friend who works at an animal shelter and you see the following:,2,1618261669468,NA,birds_rescue,It is big relative to other,1,NA,congruent,custom_main_text1,big,Your friend says: <br/><b>That big eagle is a rescue.</b>
2864,What do you think your friend is saying it is small relative to?,Mon Apr 12 2021 17:07:49 GMT-0400 (Eastern Daylight Time),images/stripmall-landmark-filler.png,images/buildings-parade-basic_filler.png,41,filler,no,1,buildings,Susan,NA,buildings,stripmalls,yes,Your friend points to something in the distance (not shown).,NA,subj,landmark,stripmall,58,stripmalls,NA,graduated_college,small,NA,English,male,19190,You and your friend see the following:,3,1618261669468,NA,buildings_landmark,It is small relative to other,1,NA,congruent,custom_main_text1,small,Your friend says: <br/><b>That stripmall is small.</b>
2864,What do you think your friend is saying it is big relative to?,Mon Apr 12 2021 17:07:49 GMT-0400 (Eastern Daylight Time),images/skyscraper-landmark.png,images/buildings-parade-basic.png,41,critical,no,1,buildings,Susan,NA,buildings,skyscrapers,yes,Your friend points to something in the distance (not shown).,NA,pred,landmark,skyscraper,58,buildings,NA,graduated_college,big,NA,English,male,18754,You visit your friend who lives in another city. You take a walk and you see the following:,4,1618261669468,NA,buildings_landmark,It is big relative to other,1,NA,congruent,custom_main_text1,big,Your friend says: <br/><b>That landmark is a big skyscraper.</b>
2864,What do you think your friend is saying it is big relative to?,Mon Apr 12 2021 17:07:49 GMT-0400 (Eastern Daylight Time),images/great-dane_filler.png,images/dog-parade-basic2_filler.png,41,filler,no,1,dogs2,Susan,NA,dogs,Great Danes,yes,Your friend points to something in the distance (not shown).,NA,pred,present,Great Dane,58,Great,NA,graduated_college,big,NA,English,male,21825,You and your friend see the following:,5,1618261669468,NA,dogs2_present,It is big relative to other,1,NA,congruent,custom_main_text1,big,Your friend says: <br/><b>That's a big Great Dane.</b>
2864,What do you think your friend is saying it is small relative to?,Mon Apr 12 2021 17:07:49 GMT-0400 (Eastern Daylight Time),images/pug.png,images/dog-parade-basic2.png,41,critical,no,1,dogs2,Susan,NA,pugs,dogs,yes,Your friend points to something in the distance (not shown).,NA,subj,prize-winner,pug,58,pugs,NA,graduated_college,small,NA,English,male,23537,You and your friend are at a pet show and you see the following:,6,1618261669468,NA,dogs2_prize,It is small relative to other,1,NA,congruent,custom_main_text1,small,Your friend says: <br/><b>That small pug is a prize-winner.</b>
2864,What do you think your friend is saying it is small relative to?,Mon Apr 12 2021 17:07:49 GMT-0400 (Eastern Daylight Time),images/hummingbird_filler.png,images/bird-parade-basic_filler.png,41,filler,no,1,birds,Susan,NA,hummingbirds,birds,yes,Your friend points to something in the distance (not shown).,NA,pred,rescue,hummingbird,58,hummingbirds,NA,graduated_college,small,NA,English,male,13069,You and your friend see the following:,7,1618261669468,NA,birds_rescue,It is small relative to other,1,NA,congruent,custom_main_text1,small,Your friend says: <br/><b>That's a small hummingbird.</b>
2864,What do you think your friend is saying it is small relative to?,Mon Apr 12 2021 17:07:49 GMT-0400 (Eastern Daylight Time),images/dandelion-landmark.png,images/flower-parade-basic-landmark.png,41,critical,no,1,flowers,Susan,NA,flowers,dandelions,yes,Your friend points to something in the distance (not shown).,NA,pred,landmark,dandelion,58,flowers,NA,graduated_college,small,NA,English,male,20531,You and your friend walk to a cabin you are renting for the weekend for the first time. You go along the path and you see the following:,8,1618261669468,NA,flowers_landmark,It is small relative to other,1,NA,congruent,custom_main_text1,small,Your friend says: <br/><b>That landmark is a small dandelion.</b>
2864,What do you think your friend is saying it is small relative to?,Mon Apr 12 2021 17:07:49 GMT-0400 (Eastern Daylight Time),images/chihuahua_filler.png,images/dog-parade-basic_filler.png,41,filler,no,1,dogs1,Susan,NA,chihuahuas,dogs,yes,Your friend points to something in the distance (not shown).,NA,subj,rescue,chihuahua,58,chihuahuas,NA,graduated_college,small,NA,English,male,13508,You and your friend see the following:,9,1618261669468,NA,dogs1_rescue,It is small relative to other,1,NA,congruent,custom_main_text1,small,Your friend says: <br/><b>That chihuahua is small.</b>
2864,What do you think your friend is saying it is small relative to?,Mon Apr 12 2021 17:07:49 GMT-0400 (Eastern Daylight Time),images/pug-gift.png,images/dog-parade-basic2-gift.png,41,critical,no,1,dogs2,Susan,NA,dogs,pugs,yes,Your friend points to something in the distance (not shown).,NA,subj,present,pug,58,pugs,NA,graduated_college,small,NA,English,male,12183,You and your friend are at a pet store and you see the following:,10,1618261669468,NA,dogs2_present,It is small relative to other,1,NA,congruent,custom_main_text1,small,Your friend says: <br/><b>That small pug is a present.</b>
2864,What do you think your friend is saying it is small relative to?,Mon Apr 12 2021 17:07:49 GMT-0400 (Eastern Daylight Time),images/chihuahua_filler.png,images/dog-parade-basic_filler.png,41,filler,no,1,dogs1,Susan,NA,dogs,chihuahuas,yes,Your friend points to something in the distance (not shown).,NA,pred,service-animal,chihuahua,58,chihuahuas,NA,graduated_college,small,NA,English,male,5780,You and your friend see the following:,11,1618261669468,NA,dogs1_service,It is small relative to other,1,NA,congruent,custom_main_text1,small,Your friend says: <br/><b>That's a small chihuahua.</b>
2864,What do you think your friend is saying it is small relative to?,Mon Apr 12 2021 17:07:49 GMT-0400 (Eastern Daylight Time),images/bonsai_stick.png,images/tree-parade-basic.png,41,critical,no,1,trees,Susan,NA,trees,bonsais,yes,Your friend points to something in the distance (not shown).,NA,pred,landmark,bonsai,58,bonsais,NA,graduated_college,small,NA,English,male,6892,You and your friend walk to your friend's cabin in a park for the first time. You want to memorize the path and you see the following:,12,1618261669468,NA,trees_landmark,It is small relative to other,1,NA,congruent,custom_main_text1,small,Your friend says: <br/><b>That landmark is a small bonsai.</b>
2864,What do you think your friend is saying it is big relative to?,Mon Apr 12 2021 17:07:49 GMT-0400 (Eastern Daylight Time),images/great-dane_filler.png,images/dog-parade-basic2_filler.png,41,filler,no,1,dogs2,Susan,NA,Great Danes,dogs,yes,Your friend points to something in the distance (not shown).,NA,pred,prize-winner,Great Dane,58,Great,NA,graduated_college,big,NA,English,male,5178,You and your friend see the following:,13,1618261669468,NA,dogs2_prize,It is big relative to other,1,NA,congruent,custom_main_text1,big,Your friend says: <br/><b>That's a big Great Dane.</b>
2864,What do you think your friend is saying it is big relative to?,Mon Apr 12 2021 17:07:49 GMT-0400 (Eastern Daylight Time),images/sunflower_filler.png,images/flower-parade-basic_filler.png,41,filler,no,1,flowers,Susan,NA,flowers,sunflowers,yes,Your friend points to something in the distance (not shown).,NA,subj,landmark,sunflower,58,sunflowers,NA,graduated_college,big,NA,English,male,4622,You and your friend see the following:,14,1618261669468,NA,flowers_landmark,It is big relative to other,1,NA,congruent,custom_main_text1,big,Your friend says: <br/><b>That sunflower is big.</b>
2864,What do you think your friend is saying it is big relative to?,Mon Apr 12 2021 17:07:49 GMT-0400 (Eastern Daylight Time),images/doberman-rescue.png,images/dog-parade-basic-rescue.png,41,critical,no,1,dogs1,Susan,NA,dogs,dobermen,yes,Your friend points to something in the distance (not shown).,NA,pred,rescue,doberman,58,dobermen,NA,graduated_college,big,NA,English,male,7964,You visit your friend who works at an animal shelter and you see the following:,15,1618261669468,NA,dogs1_rescue,It is big relative to other,1,NA,congruent,custom_main_text1,big,Your friend says: <br/><b>That rescue is a big doberman.</b>
2864,What do you think your friend is saying it is big relative to?,Mon Apr 12 2021 17:07:49 GMT-0400 (Eastern Daylight Time),images/doberman.png,images/dog-parade-basic.png,41,critical,no,1,dogs1,Susan,NA,dogs,dobermen,yes,Your friend points to something in the distance (not shown).,NA,subj,service-animal,doberman,58,dobermen,NA,graduated_college,big,NA,English,male,4434,You and your friend are at an animal training ground and you see the following:,16,1618261669468,NA,dogs1_service,It is big relative to other,1,NA,congruent,custom_main_text1,big,Your friend says: <br/><b>That big doberman is a service-animal.</b>
2863,<i>What do you think Speaker A meant? </i>,Mon Apr 12 2021 14:08:11 GMT-0700 (Pacific Daylight Time),NA,NA,41,NA,NA,1,NA,sarah,1,NA,NA,yes,NA,"<b> Speaker A: ""The Empire State Building is tall.""</b>",NA,NA,NA,33,buildings.,NA,some_college,NA,comp_class_warmup,English,male,NA,In the main trials you will be asked to rephrase something a person said. The utterance will contain a word that is <i>relative</i> and your task is to figure out what it is relative to. <br /> <br /> For example: <br />,1,1618261691033,1,NA,The Empire State Building is tall relative to other,0.3,"buildings, skyscrapers, houses, constructions (choose one)",NA,comp_class_warmup,NA,NA
2863,<i>What do you think Speaker A meant? </i>,Mon Apr 12 2021 14:08:11 GMT-0700 (Pacific Daylight Time),NA,NA,41,NA,NA,1,NA,sarah,1,NA,NA,yes,NA,"<b> Speaker A: ""The Empire State Building is tall.""</b>",NA,NA,NA,33,buildings,NA,some_college,NA,comp_class_warmup,English,male,NA,In the main trials you will be asked to rephrase something a person said. The utterance will contain a word that is <i>relative</i> and your task is to figure out what it is relative to. <br /> <br /> For example: <br />,1,1618261691033,2,NA,The Empire State Building is tall relative to other,0.3,"buildings, skyscrapers, houses, constructions (choose one)",NA,comp_class_warmup,NA,NA
2863,What do you think your friend is saying it is big relative to?,Mon Apr 12 2021 14:08:11 GMT-0700 (Pacific Daylight Time),images/doberman.png,images/dog-parade-basic.png,41,critical,NA,1,dogs1,sarah,NA,dobermen,dogs,yes,Your friend points to something in the distance (not shown).,NA,subj,service-animal,doberman,33,dogs,NA,some_college,big,NA,English,male,39033,You and your friend are at an animal training ground and you see the following:,1,1618261691033,NA,dogs1_service,It is big relative to other,0.3,NA,congruent,custom_main_text1,big,Your friend says: <br/><b>That big doberman is a service-animal.</b>
2863,What do you think your friend is saying it is small relative to?,Mon Apr 12 2021 14:08:11 GMT-0700 (Pacific Daylight Time),images/dandelion_filler.png,images/flower-parade-basic_filler.png,41,filler,NA,1,flowers,sarah,NA,flowers,dandelions,yes,Your friend points to something in the distance (not shown).,NA,subj,landmark,dandelion,33,flowers,NA,some_college,small,NA,English,male,10392,You and your friend see the following:,2,1618261691033,NA,flowers_landmark,It is small relative to other,0.3,NA,congruent,custom_main_text1,small,Your friend says: <br/><b>That dandelion is small.</b>
2863,What do you think your friend is saying it is big relative to?,Mon Apr 12 2021 14:08:11 GMT-0700 (Pacific Daylight Time),images/doberman_filler.png,images/dog-parade-basic_filler.png,41,filler,NA,1,dogs1,sarah,NA,dobermen,dogs,yes,Your friend points to something in the distance (not shown).,NA,pred,rescue,doberman,33,dogs,NA,some_college,big,NA,English,male,8520,You and your friend see the following:,3,1618261691033,NA,dogs1_rescue,It is big relative to other,0.3,NA,congruent,custom_main_text1,big,Your friend says: <br/><b>That's a big doberman.</b>
2863,What do you think your friend is saying it is big relative to?,Mon Apr 12 2021 14:08:11 GMT-0700 (Pacific Daylight Time),images/redwood_filler.png,images/tree-parade-basic_filler.png,41,filler,NA,1,trees,sarah,NA,redwoods,trees,yes,Your friend points to something in the distance (not shown).,NA,subj,landmark,redwood,33,trees,NA,some_college,big,NA,English,male,9448,You and your friend see the following:,4,1618261691033,NA,trees_landmark,It is big relative to other,0.3,NA,congruent,custom_main_text1,big,Your friend says: <br/><b>That redwood is big.</b>
2863,What do you think your friend is saying it is small relative to?,Mon Apr 12 2021 14:08:11 GMT-0700 (Pacific Daylight Time),images/bonsai_stick.png,images/tree-parade-basic.png,41,critical,NA,1,trees,sarah,NA,trees,bonsais,yes,Your friend points to something in the distance (not shown).,NA,pred,landmark,bonsai,33,bonsais,NA,some_college,small,NA,English,male,26679,You and your friend walk to your friend's cabin in a park for the first time. You want to memorize the path and you see the following:,5,1618261691033,NA,trees_landmark,It is small relative to other,0.3,NA,congruent,custom_main_text1,small,Your friend says: <br/><b>That landmark is a small bonsai.</b>
2863,What do you think your friend is saying it is big relative to?,Mon Apr 12 2021 14:08:11 GMT-0700 (Pacific Daylight Time),images/skyscraper-landmark-filler.png,images/buildings-parade-basic_filler.png,41,filler,NA,1,buildings,sarah,NA,buildings,skyscrapers,yes,Your friend points to something in the distance (not shown).,NA,subj,landmark,skyscraper,33,buildings,NA,some_college,big,NA,English,male,9584,You and your friend see the following:,6,1618261691033,NA,buildings_landmark,It is big relative to other,0.3,NA,congruent,custom_main_text1,big,Your friend says: <br/><b>That skyscraper is big.</b>
2863,What do you think your friend is saying it is big relative to?,Mon Apr 12 2021 14:08:11 GMT-0700 (Pacific Daylight Time),images/eagle.png,images/bird-parade-basic.png,41,critical,NA,1,birds,sarah,NA,birds,eagles,yes,Your friend points to something in the distance (not shown).,NA,pred,rescue,eagle,33,birds,NA,some_college,big,NA,English,male,12536,You visit your friend who works at an animal shelter and you see the following:,7,1618261691033,NA,birds_rescue,It is big relative to other,0.3,NA,congruent,custom_main_text1,big,Your friend says: <br/><b>That rescue is a big eagle.</b>
2863,What do you think your friend is saying it is small relative to?,Mon Apr 12 2021 14:08:11 GMT-0700 (Pacific Daylight Time),images/chihuahua-rescue.png,images/dog-parade-basic-rescue.png,41,critical,NA,1,dogs1,sarah,NA,dogs,chihuahuas,yes,Your friend points to something in the distance (not shown).,NA,subj,rescue,chihuahua,33,chihuahuas,NA,some_college,small,NA,English,male,12016,You visit your friend who works at an animal shelter and you see the following:,8,1618261691033,NA,dogs1_rescue,It is small relative to other,0.3,NA,congruent,custom_main_text1,small,Your friend says: <br/><b>That small chihuahua is a rescue.</b>
2863,What do you think your friend is saying it is small relative to?,Mon Apr 12 2021 14:08:11 GMT-0700 (Pacific Daylight Time),images/chihuahua_filler.png,images/dog-parade-basic_filler.png,41,filler,NA,1,dogs1,sarah,NA,dogs,chihuahuas,yes,Your friend points to something in the distance (not shown).,NA,pred,service-animal,chihuahua,33,dogs,NA,some_college,small,NA,English,male,8560,You and your friend see the following:,9,1618261691033,NA,dogs1_service,It is small relative to other,0.3,NA,congruent,custom_main_text1,small,Your friend says: <br/><b>That's a small chihuahua.</b>
2863,What do you think your friend is saying it is big relative to?,Mon Apr 12 2021 14:08:11 GMT-0700 (Pacific Daylight Time),images/sunflower-landmark.png,images/flower-parade-basic-landmark.png,41,critical,NA,1,flowers,sarah,NA,flowers,sunflowers,yes,Your friend points to something in the distance (not shown).,NA,pred,landmark,sunflower,33,sunflowers,NA,some_college,big,NA,English,male,17688,You and your friend walk to a cabin you are renting for the weekend for the first time. You go along the path and you see the following:,10,1618261691033,NA,flowers_landmark,It is big relative to other,0.3,NA,congruent,custom_main_text1,big,Your friend says: <br/><b>That landmark is a big sunflower.</b>
2863,What do you think your friend is saying it is small relative to?,Mon Apr 12 2021 14:08:11 GMT-0700 (Pacific Daylight Time),images/dandelion_filler.png,images/flower-parade-basic_filler.png,41,filler,NA,1,flowers,sarah,NA,flowers,dandelions,yes,Your friend points to something in the distance (not shown).,NA,pred,present,dandelion,33,flowers,NA,some_college,small,NA,English,male,8992,You and your friend see the following:,11,1618261691033,NA,flowers_present,It is small relative to other,0.3,NA,congruent,custom_main_text1,small,Your friend says: <br/><b>That's a small dandelion.</b>
2863,What do you think your friend is saying it is big relative to?,Mon Apr 12 2021 14:08:11 GMT-0700 (Pacific Daylight Time),images/sunflower.png,images/flower-parade-basic.png,41,critical,NA,1,flowers,sarah,NA,flowers,sunflowers,yes,Your friend points to something in the distance (not shown).,NA,subj,present,sunflower,33,sunflowers,NA,some_college,big,NA,English,male,10936,You and your friend are at a garden store and you see the following:,12,1618261691033,NA,flowers_present,It is big relative to other,0.3,NA,congruent,custom_main_text1,big,Your friend says: <br/><b>That big sunflower is a present.</b>
2863,What do you think your friend is saying it is small relative to?,Mon Apr 12 2021 14:08:11 GMT-0700 (Pacific Daylight Time),images/hummingbird_filler.png,images/bird-parade-basic_filler.png,41,filler,NA,1,birds,sarah,NA,hummingbirds,birds,yes,Your friend points to something in the distance (not shown).,NA,subj,rescue,hummingbird,33,birds,NA,some_college,small,NA,English,male,8544,You and your friend see the following:,13,1618261691033,NA,birds_rescue,It is small relative to other,0.3,NA,congruent,custom_main_text1,small,Your friend says: <br/><b>That hummingbird is small.</b>
2863,What do you think your friend is saying it is big relative to?,Mon Apr 12 2021 14:08:11 GMT-0700 (Pacific Daylight Time),images/great-dane_filler.png,images/dog-parade-basic2_filler.png,41,filler,NA,1,dogs2,sarah,NA,Great Danes,dogs,yes,Your friend points to something in the distance (not shown).,NA,pred,prize-winner,Great Dane,33,dogs,NA,some_college,big,NA,English,male,10729,You and your friend see the following:,14,1618261691033,NA,dogs2_prize,It is big relative to other,0.3,NA,congruent,custom_main_text1,big,Your friend says: <br/><b>That's a big Great Dane.</b>
2863,What do you think your friend is saying it is small relative to?,Mon Apr 12 2021 14:08:11 GMT-0700 (Pacific Daylight Time),images/stripmall-landmark.png,images/buildings-parade-basic.png,41,critical,NA,1,buildings,sarah,NA,stripmalls,buildings,yes,Your friend points to something in the distance (not shown).,NA,pred,landmark,stripmall,33,stripmalls,NA,some_college,small,NA,English,male,14511,You visit your friend who lives in another city. You take a walk and you see the following:,15,1618261691033,NA,buildings_landmark,It is small relative to other,0.3,NA,congruent,custom_main_text1,small,Your friend says: <br/><b>That landmark is a small stripmall.</b>
2863,What do you think your friend is saying it is small relative to?,Mon Apr 12 2021 14:08:11 GMT-0700 (Pacific Daylight Time),images/pug.png,images/dog-parade-basic2.png,41,critical,NA,1,dogs2,sarah,NA,pugs,dogs,yes,Your friend points to something in the distance (not shown).,NA,subj,prize-winner,pug,33,dogs,NA,some_college,small,NA,English,male,16448,You and your friend are at a pet show and you see the following:,16,1618261691033,NA,dogs2_prize,It is small relative to other,0.3,NA,congruent,custom_main_text1,small,Your friend says: <br/><b>That small pug is a prize-winner.</b>
2862,<i>What do you think Speaker A meant? </i>,Mon Apr 12 2021 16:09:47 GMT-0500 (Central Daylight Time),NA,NA,41,NA,None,1,NA,mary,1,NA,NA,yes,NA,"<b> Speaker A: ""The Empire State Building is tall.""</b>",NA,NA,NA,30,buildings,N/A,graduated_college,NA,comp_class_warmup,English,female,NA,In the main trials you will be asked to rephrase something a person said. The utterance will contain a word that is <i>relative</i> and your task is to figure out what it is relative to. <br /> <br /> For example: <br />,1,1618261787713,1,NA,The Empire State Building is tall relative to other,1,"buildings, skyscrapers, houses, constructions (choose one)",NA,comp_class_warmup,NA,NA
2862,What do you think your friend is saying it is small relative to?,Mon Apr 12 2021 16:09:47 GMT-0500 (Central Daylight Time),images/pug-gift.png,images/dog-parade-basic2-gift.png,41,critical,None,1,dogs2,mary,NA,pugs,dogs,yes,Your friend points to something in the distance (not shown).,NA,subj,present,pug,30,dogs,N/A,graduated_college,small,NA,English,female,13208,You and your friend are at a pet store and you see the following:,1,1618261787713,NA,dogs2_present,It is small relative to other,1,NA,congruent,custom_main_text1,small,Your friend says: <br/><b>That small pug is a present.</b>
2862,What do you think your friend is saying it is small relative to?,Mon Apr 12 2021 16:09:47 GMT-0500 (Central Daylight Time),images/chihuahua.png,images/dog-parade-basic.png,41,critical,None,1,dogs1,mary,NA,chihuahuas,dogs,yes,Your friend points to something in the distance (not shown).,NA,pred,service-animal,chihuahua,30,dogs,N/A,graduated_college,small,NA,English,female,9756,You and your friend are at an animal training ground and you see the following:,2,1618261787713,NA,dogs1_service,It is small relative to other,1,NA,congruent,custom_main_text1,small,Your friend says: <br/><b>That service-animal is a small chihuahua.</b>
2862,What do you think your friend is saying it is big relative to?,Mon Apr 12 2021 16:09:47 GMT-0500 (Central Daylight Time),images/skyscraper-landmark-filler.png,images/buildings-parade-basic_filler.png,41,filler,None,1,buildings,mary,NA,buildings,skyscrapers,yes,Your friend points to something in the distance (not shown).,NA,pred,landmark,skyscraper,30,buildings,N/A,graduated_college,big,NA,English,female,6732,You and your friend see the following:,3,1618261787713,NA,buildings_landmark,It is big relative to other,1,NA,congruent,custom_main_text1,big,Your friend says: <br/><b>That's a big skyscraper.</b>
2862,What do you think your friend is saying it is small relative to?,Mon Apr 12 2021 16:09:47 GMT-0500 (Central Daylight Time),images/stripmall-landmark.png,images/buildings-parade-basic.png,41,critical,None,1,buildings,mary,NA,buildings,stripmalls,yes,Your friend points to something in the distance (not shown).,NA,subj,landmark,stripmall,30,buildings,N/A,graduated_college,small,NA,English,female,19790,You visit your friend who lives in another city. You take a walk and you see the following:,4,1618261787713,NA,buildings_landmark,It is small relative to other,1,NA,congruent,custom_main_text1,small,Your friend says: <br/><b>That small stripmall is a landmark.</b>
2862,What do you think your friend is saying it is big relative to?,Mon Apr 12 2021 16:09:47 GMT-0500 (Central Daylight Time),images/doberman-rescue.png,images/dog-parade-basic-rescue.png,41,critical,None,1,dogs1,mary,NA,dobermen,dogs,yes,Your friend points to something in the distance (not shown).,NA,pred,rescue,doberman,30,dogs,N/A,graduated_college,big,NA,English,female,5243,You visit your friend who works at an animal shelter and you see the following:,5,1618261787713,NA,dogs1_rescue,It is big relative to other,1,NA,congruent,custom_main_text1,big,Your friend says: <br/><b>That rescue is a big doberman.</b>
2862,What do you think your friend is saying it is small relative to?,Mon Apr 12 2021 16:09:47 GMT-0500 (Central Daylight Time),images/chihuahua_filler.png,images/dog-parade-basic_filler.png,41,filler,None,1,dogs1,mary,NA,dogs,chihuahuas,yes,Your friend points to something in the distance (not shown).,NA,subj,rescue,chihuahua,30,dogs,N/A,graduated_college,small,NA,English,female,4262,You and your friend see the following:,6,1618261787713,NA,dogs1_rescue,It is small relative to other,1,NA,congruent,custom_main_text1,small,Your friend says: <br/><b>That chihuahua is small.</b>
2862,What do you think your friend is saying it is small relative to?,Mon Apr 12 2021 16:09:47 GMT-0500 (Central Daylight Time),images/pug_filler.png,images/dog-parade-basic2_filler.png,41,filler,None,1,dogs2,mary,NA,dogs,pugs,yes,Your friend points to something in the distance (not shown).,NA,pred,prize-winner,pug,30,dogs,N/A,graduated_college,small,NA,English,female,3352,You and your friend see the following:,7,1618261787713,NA,dogs2_prize,It is small relative to other,1,NA,congruent,custom_main_text1,small,Your friend says: <br/><b>That's a small pug.</b>
2862,What do you think your friend is saying it is small relative to?,Mon Apr 12 2021 16:09:47 GMT-0500 (Central Daylight Time),images/bonsai_stick.png,images/tree-parade-basic.png,41,critical,None,1,trees,mary,NA,trees,bonsais,yes,Your friend points to something in the distance (not shown).,NA,pred,landmark,bonsai,30,trees,N/A,graduated_college,small,NA,English,female,5247,You and your friend walk to your friend's cabin in a park for the first time. You want to memorize the path and you see the following:,8,1618261787713,NA,trees_landmark,It is small relative to other,1,NA,congruent,custom_main_text1,small,Your friend says: <br/><b>That landmark is a small bonsai.</b>
2862,What do you think your friend is saying it is big relative to?,Mon Apr 12 2021 16:09:47 GMT-0500 (Central Daylight Time),images/great-dane.png,images/dog-parade-basic2.png,41,critical,None,1,dogs2,mary,NA,dogs,Great Danes,yes,Your friend points to something in the distance (not shown).,NA,subj,prize-winner,Great Dane,30,dogs,N/A,graduated_college,big,NA,English,female,3950,You and your friend are at a pet show and you see the following:,9,1618261787713,NA,dogs2_prize,It is big relative to other,1,NA,congruent,custom_main_text1,big,Your friend says: <br/><b>That big Great Dane is a prize-winner.</b>
2862,What do you think your friend is saying it is small relative to?,Mon Apr 12 2021 16:09:47 GMT-0500 (Central Daylight Time),images/dandelion_filler.png,images/flower-parade-basic_filler.png,41,filler,None,1,flowers,mary,NA,dandelions,flowers,yes,Your friend points to something in the distance (not shown).,NA,subj,landmark,dandelion,30,flowers,N/A,graduated_college,small,NA,English,female,3254,You and your friend see the following:,10,1618261787713,NA,flowers_landmark,It is small relative to other,1,NA,congruent,custom_main_text1,small,Your friend says: <br/><b>That dandelion is small.</b>
2862,What do you think your friend is saying it is big relative to?,Mon Apr 12 2021 16:09:47 GMT-0500 (Central Daylight Time),images/sunflower-landmark.png,images/flower-parade-basic-landmark.png,41,critical,None,1,flowers,mary,NA,sunflowers,flowers,yes,Your friend points to something in the distance (not shown).,NA,pred,landmark,sunflower,30,flowers,N/A,graduated_college,big,NA,English,female,9616,You and your friend walk to a cabin you are renting for the weekend for the first time. You go along the path and you see the following:,11,1618261787713,NA,flowers_landmark,It is big relative to other,1,NA,congruent,custom_main_text1,big,Your friend says: <br/><b>That landmark is a big sunflower.</b>
2862,What do you think your friend is saying it is big relative to?,Mon Apr 12 2021 16:09:47 GMT-0500 (Central Daylight Time),images/great-dane_filler.png,images/dog-parade-basic2_filler.png,41,filler,None,1,dogs2,mary,NA,dogs,Great Danes,yes,Your friend points to something in the distance (not shown).,NA,pred,present,Great Dane,30,dogs,N/A,graduated_college,big,NA,English,female,6220,You and your friend see the following:,12,1618261787713,NA,dogs2_present,It is big relative to other,1,NA,congruent,custom_main_text1,big,Your friend says: <br/><b>That's a big Great Dane.</b>
2862,What do you think your friend is saying it is big relative to?,Mon Apr 12 2021 16:09:47 GMT-0500 (Central Daylight Time),images/doberman_filler.png,images/dog-parade-basic_filler.png,41,filler,None,1,dogs1,mary,NA,dogs,dobermen,yes,Your friend points to something in the distance (not shown).,NA,subj,service-animal,doberman,30,dogs,N/A,graduated_college,big,NA,English,female,5314,You and your friend see the following:,13,1618261787713,NA,dogs1_service,It is big relative to other,1,NA,congruent,custom_main_text1,big,Your friend says: <br/><b>That doberman is big.</b>
2862,What do you think your friend is saying it is small relative to?,Mon Apr 12 2021 16:09:47 GMT-0500 (Central Daylight Time),images/dandelion_filler.png,images/flower-parade-basic_filler.png,41,filler,None,1,flowers,mary,NA,flowers,dandelions,yes,Your friend points to something in the distance (not shown).,NA,pred,present,dandelion,30,flowers,N/A,graduated_college,small,NA,English,female,3023,You and your friend see the following:,14,1618261787713,NA,flowers_present,It is small relative to other,1,NA,congruent,custom_main_text1,small,Your friend says: <br/><b>That's a small dandelion.</b>
2862,What do you think your friend is saying it is big relative to?,Mon Apr 12 2021 16:09:47 GMT-0500 (Central Daylight Time),images/sunflower.png,images/flower-parade-basic.png,41,critical,None,1,flowers,mary,NA,sunflowers,flowers,yes,Your friend points to something in the distance (not shown).,NA,subj,present,sunflower,30,flowers,N/A,graduated_college,big,NA,English,female,8372,You and your friend are at a garden store and you see the following:,15,1618261787713,NA,flowers_present,It is big relative to other,1,NA,congruent,custom_main_text1,big,Your friend says: <br/><b>That big sunflower is a present.</b>
2862,What do you think your friend is saying it is big relative to?,Mon Apr 12 2021 16:09:47 GMT-0500 (Central Daylight Time),images/redwood_filler.png,images/tree-parade-basic_filler.png,41,filler,None,1,trees,mary,NA,trees,redwoods,yes,Your friend points to something in the distance (not shown).,NA,subj,landmark,redwood,30,trees,N/A,graduated_college,big,NA,English,female,2874,You and your friend see the following:,16,1618261787713,NA,trees_landmark,It is big relative to other,1,NA,congruent,custom_main_text1,big,Your friend says: <br/><b>That redwood is big.</b>
2861,<i>What do you think Speaker A meant? </i>,Mon Apr 12 2021 17:08:05 GMT-0400 (Eastern Daylight Time),NA,NA,41,NA,No,1,NA,sarah,1,NA,NA,NA,NA,"<b> Speaker A: ""The Empire State Building is tall.""</b>",NA,NA,NA,32,buildings,N/A,graduated_college,NA,comp_class_warmup,English,male,NA,In the main trials you will be asked to rephrase something a person said. The utterance will contain a word that is <i>relative</i> and your task is to figure out what it is relative to. <br /> <br /> For example: <br />,1,1618261685982,1,NA,The Empire State Building is tall relative to other,1.5,"buildings, skyscrapers, houses, constructions (choose one)",NA,comp_class_warmup,NA,NA
2861,What do you think your friend is saying it is big relative to?,Mon Apr 12 2021 17:08:05 GMT-0400 (Eastern Daylight Time),images/eagle_filler.png,images/bird-parade-basic_filler.png,41,filler,No,1,birds,sarah,NA,eagles,birds,NA,Your friend points to something in the distance (not shown).,NA,subj,rescue,eagle,32,birds,N/A,graduated_college,big,NA,English,male,23707,You and your friend see the following:,1,1618261685982,NA,birds_rescue,It is big relative to other,1.5,NA,congruent,custom_main_text1,big,Your friend says: <br/><b>That eagle is big.</b>
