submission_id,question,response1,target_picture,context_picture,experiment_id,picture2,correct1,trial_type,question1,problems,enjoyment,item,botresponse,trials,correct2,understand,text,sentence,syntax,ref_np,target,age,response,comments,picture1,response3,education,target_size,name,languages,sex,RT,correct3,context,trial_number,startTime,attempts,paraphrase,question3,fairprice,question2,response2,correct,adj_cond,trial_name,adj,utterance
2325,NA,stripmall,NA,NA,35,warmup/skyscraper2.png,stripmall,NA,This is a,no,2,buildings,barbara,NA,skyscraper,yes,Please label the pictures below.,NA,NA,NA,NA,22,NA,NA,warmup/stripmall2.png,buildings,graduated_high_school,NA,NA,english,female,NA,buildings,NA,1,1607628171616,1,NA,This is a,0.5,These are both,skyscraper,NA,NA,warmup1,NA,NA
2325,NA,dandelion,NA,NA,35,warmup/dandelion2.png,sunflower,NA,This is a,no,2,flowers,barbara,NA,dandelion,yes,Please label the pictures below.,NA,NA,NA,NA,22,NA,NA,warmup/sunflower2.png,plants,graduated_high_school,NA,NA,english,female,NA,flowers,NA,2,1607628171616,1,NA,This is a,0.5,These are both,sunflower,NA,NA,warmup1,NA,NA
2325,NA,dandelion,NA,NA,35,warmup/dandelion2.png,sunflower,NA,This is a,no,2,flowers,barbara,NA,dandelion,yes,Please label the pictures below.,NA,NA,NA,NA,22,NA,NA,warmup/sunflower2.png,flowers,graduated_high_school,NA,NA,english,female,NA,flowers,NA,2,1607628171616,2,NA,This is a,0.5,These are both,sunflower,NA,NA,warmup1,NA,NA
2325,NA,dandelion,NA,NA,35,warmup/dandelion2.png,sunflower,NA,This is a,no,2,flowers,barbara,NA,dandelion,yes,Please label the pictures below.,NA,NA,NA,NA,22,NA,NA,warmup/sunflower2.png,flowers,graduated_high_school,NA,NA,english,female,NA,flowers,NA,2,1607628171616,3,NA,This is a,0.5,These are both,sunflower,NA,NA,warmup1,NA,NA
2325,NA,sunflower,NA,NA,35,warmup/dandelion2.png,sunflower,NA,This is a,no,2,flowers,barbara,NA,dandelion,yes,Please label the pictures below.,NA,NA,NA,NA,22,NA,NA,warmup/sunflower2.png,flowers,graduated_high_school,NA,NA,english,female,NA,flowers,NA,2,1607628171616,4,NA,This is a,0.5,These are both,dandelion,NA,NA,warmup1,NA,NA
2325,<i>What do you think Speaker A meant? </i>,NA,NA,NA,35,NA,NA,NA,NA,no,2,NA,barbara,1,NA,yes,NA,"<b> Speaker A: ""The Empire State Building is tall.""</b>",NA,NA,NA,22,buildings,NA,NA,NA,graduated_high_school,NA,comp_class_warmup,english,female,NA,NA,In the main trials you will be asked to rephrase something a person said. The utterance will contain a word that is <i>relative</i> and your task is to figure out what it is relative to. <br /> <br /> For example: <br />,1,1607628171616,1,The Empire State Building is tall relative to other,NA,0.5,NA,NA,"buildings, skyscrapers, houses, constructions (choose one)",NA,comp_class_warmup,NA,NA
2325,What do you think your friend is saying it is big relative to?,NA,images/skyscraper-landmark-filler.png,images/buildings-parade-basic_filler.png,35,NA,NA,filler,NA,no,2,buildings,barbara,NA,NA,yes,Your friend goes ahead of you. You see your friend in the distance:,NA,subj,landmark,skyscraper,22,buildings,NA,NA,NA,graduated_high_school,big,NA,english,female,12919,NA,You and your friend see the following:,1,1607628171616,NA,It is big relative to other,NA,0.5,NA,NA,NA,congruent,custom_main_text1,big,Your friend says: <br/><b>That skyscraper is big.</b>
2325,What do you think your friend is saying it is big relative to?,NA,images/sunflower.png,images/flower-parade-basic.png,35,NA,NA,critical,NA,no,2,flowers,barbara,NA,NA,yes,Your friend goes ahead of you. You see your friend in the distance:,NA,subj,gift,sunflower,22,flowers,NA,NA,NA,graduated_high_school,big,NA,english,female,11832,NA,You and your friend are at a garden store and you see the following:,2,1607628171616,NA,It is big relative to other,NA,0.5,NA,NA,NA,congruent,custom_main_text1,big,Your friend says: <br/><b>That big sunflower is a gift.</b>
2325,What do you think your friend is saying it is small relative to?,NA,images/stripmall-landmark.png,images/buildings-parade-basic.png,35,NA,NA,critical,NA,no,2,buildings,barbara,NA,NA,yes,Your friend goes ahead of you. You see your friend in the distance:,NA,pred,landmark,stripmall,22,stripmalls,NA,NA,NA,graduated_high_school,small,NA,english,female,30969,NA,You visit your friend who lives in another city. You take a walk and you see the following:,3,1607628171616,NA,It is small relative to other,NA,0.5,NA,NA,NA,congruent,custom_main_text1,small,Your friend says: <br/><b>That landmark is a small stripmall.</b>
2325,What do you think your friend is saying it is small relative to?,NA,images/dandelion_filler.png,images/flower-parade-basic_filler.png,35,NA,NA,filler,NA,no,2,flowers,barbara,NA,NA,yes,Your friend goes ahead of you. You see your friend in the distance:,NA,pred,gift,dandelion,22,dandelions,NA,NA,NA,graduated_high_school,small,NA,english,female,11254,NA,You and your friend see the following:,4,1607628171616,NA,It is small relative to other,NA,0.5,NA,NA,NA,congruent,custom_main_text1,small,Your friend says: <br/><b>That's a small dandelion.</b>
2325,NA,pug,NA,NA,35,warmup/great-dane2.png,pug,NA,This is a,no,2,dogs2,barbara,NA,great dane,yes,Please label the pictures below.,NA,NA,NA,NA,22,NA,NA,warmup/pug2.png,dogs,graduated_high_school,NA,NA,english,female,NA,dogs,NA,1,1607628171616,1,NA,This is a,0.5,These are both,great dane,NA,NA,warmup2,NA,NA
2325,NA,doberman,NA,NA,35,warmup/chihuahua2.png,doberman,NA,This is a,no,2,dogs1,barbara,NA,chihuahua,yes,Please label the pictures below.,NA,NA,NA,NA,22,NA,NA,warmup/doberman2.png,dogs,graduated_high_school,NA,NA,english,female,NA,dogs,NA,2,1607628171616,1,NA,This is a,0.5,These are both,chihuahua,NA,NA,warmup2,NA,NA
2325,What do you think your friend is saying it is big relative to?,NA,images/doberman_filler.png,images/dog-parade-basic_filler.png,35,NA,NA,filler,NA,no,2,dogs1,barbara,NA,NA,yes,Your friend goes ahead of you. You see your friend in the distance:,NA,pred,service-animal,doberman,22,doberman,NA,NA,NA,graduated_high_school,big,NA,english,female,9688,NA,You and your friend see the following:,1,1607628171616,NA,It is big relative to other,NA,0.5,NA,NA,NA,congruent,custom_main_text2,big,Your friend says: <br/><b>That's a big doberman.</b>
2325,What do you think your friend is saying it is big relative to?,NA,images/great-dane.png,images/dog-parade-basic2.png,35,NA,NA,critical,NA,no,2,dogs2,barbara,NA,NA,yes,Your friend goes ahead of you. You see your friend in the distance:,NA,pred,prize-winner,Great Dane,22,great danes,NA,NA,NA,graduated_high_school,big,NA,english,female,14026,NA,You and your friend are at a pet show and you see the following:,2,1607628171616,NA,It is big relative to other,NA,0.5,NA,NA,NA,congruent,custom_main_text2,big,Your friend says: <br/><b>That prize-winner is a big Great Dane.</b>
2325,What do you think your friend is saying it is small relative to?,NA,images/chihuahua.png,images/dog-parade-basic.png,35,NA,NA,critical,NA,no,2,dogs1,barbara,NA,NA,yes,Your friend goes ahead of you. You see your friend in the distance:,NA,subj,service-animal,chihuahua,22,chihuahuas,NA,NA,NA,graduated_high_school,small,NA,english,female,10734,NA,You and your friend are at an animal training ground and you see the following:,3,1607628171616,NA,It is small relative to other,NA,0.5,NA,NA,NA,congruent,custom_main_text2,small,Your friend says: <br/><b>That small chihuahua is a service-animal.</b>
2325,What do you think your friend is saying it is small relative to?,NA,images/pug_filler.png,images/dog-parade-basic2_filler.png,35,NA,NA,filler,NA,no,2,dogs2,barbara,NA,NA,yes,Your friend goes ahead of you. You see your friend in the distance:,NA,subj,prize-winner,pug,22,pugs,NA,NA,NA,graduated_high_school,small,NA,english,female,7012,NA,You and your friend see the following:,4,1607628171616,NA,It is small relative to other,NA,0.5,NA,NA,NA,congruent,custom_main_text2,small,Your friend says: <br/><b>That pug is small.</b>
2329,NA,sunflower,NA,NA,35,warmup/dandelion2.png,sunflower,NA,This is a,No.,2,flowers,mary,NA,dandelion,yes,Please label the pictures below.,NA,NA,NA,NA,22,NA,No comments.,warmup/sunflower2.png,flowers,graduated_college,NA,NA,English,male,NA,flowers,NA,1,1607629162416,1,NA,This is a,1.25,These are both,dandelion,NA,NA,warmup1,NA,NA
2329,NA,clownfish,NA,NA,35,warmup/tuna2.png,clownfish,NA,This is a,No.,2,fish,mary,NA,tuna,yes,Please label the pictures below.,NA,NA,NA,NA,22,NA,No comments.,warmup/clownfish2.png,fish,graduated_college,NA,NA,English,male,NA,fish,NA,2,1607629162416,1,NA,This is a,1.25,These are both,tuna,NA,NA,warmup1,NA,NA
2329,<i>What do you think Speaker A meant? </i>,NA,NA,NA,35,NA,NA,NA,NA,No.,2,NA,mary,1,NA,yes,NA,"<b> Speaker A: ""The Empire State Building is tall.""</b>",NA,NA,NA,22,buildings,No comments.,NA,NA,graduated_college,NA,comp_class_warmup,English,male,NA,NA,In the main trials you will be asked to rephrase something a person said. The utterance will contain a word that is <i>relative</i> and your task is to figure out what it is relative to. <br /> <br /> For example: <br />,1,1607629162416,1,The Empire State Building is tall relative to other,NA,1.25,NA,NA,"buildings, skyscrapers, houses, constructions (choose one)",NA,comp_class_warmup,NA,NA
2329,What do you think your friend is saying it is small relative to?,NA,images/dandelion_filler.png,images/flower-parade-basic_filler.png,35,NA,NA,filler,NA,No.,2,flowers,mary,NA,NA,yes,Your friend goes ahead of you. You see your friend in the distance:,NA,pred,gift,dandelion,22,dandelions,No comments.,NA,NA,graduated_college,small,NA,English,male,13527,NA,You and your friend see the following:,1,1607629162416,NA,It is small relative to other,NA,1.25,NA,NA,NA,congruent,custom_main_text1,small,Your friend says: <br/><b>That's a small dandelion.</b>
2329,What do you think your friend is saying it is big relative to?,NA,images/sunflower.png,images/flower-parade-basic.png,35,NA,NA,critical,NA,No.,2,flowers,mary,NA,NA,yes,Your friend goes ahead of you. You see your friend in the distance:,NA,subj,gift,sunflower,22,potted plants,No comments.,NA,NA,graduated_college,big,NA,English,male,15432,NA,You and your friend are at a garden store and you see the following:,2,1607629162416,NA,It is big relative to other,NA,1.25,NA,NA,NA,congruent,custom_main_text1,big,Your friend says: <br/><b>That big sunflower is a gift.</b>
2329,What do you think your friend is saying it is big relative to?,NA,images/tuna_filler.png,images/fish-parade-basic_filler.png,35,NA,NA,filler,NA,No.,2,fish,mary,NA,NA,yes,Your friend goes ahead of you. You see your friend in the distance:,NA,subj,rescue,tuna,22,fish,No comments.,NA,NA,graduated_college,big,NA,English,male,10871,NA,You and your friend see the following:,3,1607629162416,NA,It is big relative to other,NA,1.25,NA,NA,NA,congruent,custom_main_text1,big,Your friend says: <br/><b>That tuna is big.</b>
2329,What do you think your friend is saying it is small relative to?,NA,images/clownfish_net.png,images/fish-parade-basic.png,35,NA,NA,critical,NA,No.,2,fish,mary,NA,NA,yes,Your friend goes ahead of you. You see your friend in the distance:,NA,pred,rescue,clownfish,22,fish,No comments.,NA,NA,graduated_college,small,NA,English,male,11033,NA,You visit your friend who works as a marine biologist and you see the following:,4,1607629162416,NA,It is small relative to other,NA,1.25,NA,NA,NA,congruent,custom_main_text1,small,Your friend says: <br/><b>That rescue is a small clownfish.</b>
2329,NA,bonsai,NA,NA,35,warmup/redwood2.png,bonsai,NA,This is a,No.,2,trees,mary,NA,redwood or sequoia (choose one),yes,Please label the pictures below.,NA,NA,NA,NA,22,NA,No comments.,warmup/bonsai2.png,trees,graduated_college,NA,NA,English,male,NA,trees,NA,1,1607629162416,1,NA,This is a,1.25,These are both,redwood,NA,NA,warmup2,NA,NA
2329,NA,doberman,NA,NA,35,warmup/chihuahua2.png,doberman,NA,This is a,No.,2,dogs1,mary,NA,chihuahua,yes,Please label the pictures below.,NA,NA,NA,NA,22,NA,No comments.,warmup/doberman2.png,dogs,graduated_college,NA,NA,English,male,NA,dogs,NA,2,1607629162416,1,NA,This is a,1.25,These are both,chihuahua,NA,NA,warmup2,NA,NA
2329,What do you think your friend is saying it is small relative to?,NA,images/chihuahua_filler.png,images/dog-parade-basic_filler.png,35,NA,NA,filler,NA,No.,2,dogs1,mary,NA,NA,yes,Your friend goes ahead of you. You see your friend in the distance:,NA,subj,service-animal,chihuahua,22,dogs,No comments.,NA,NA,graduated_college,small,NA,English,male,6849,NA,You and your friend see the following:,1,1607629162416,NA,It is small relative to other,NA,1.25,NA,NA,NA,congruent,custom_main_text2,small,Your friend says: <br/><b>That chihuahua is small.</b>
2329,What do you think your friend is saying it is small relative to?,NA,images/bonsai_stick.png,images/tree-parade-basic.png,35,NA,NA,critical,NA,No.,2,trees,mary,NA,NA,yes,Your friend goes ahead of you. You see your friend in the distance:,NA,subj,landmark,bonsai,22,trees,No comments.,NA,NA,graduated_college,small,NA,English,male,17408,NA,You and your friend walk to your friend's cabin in a park for the first time. You want to memorize the path and you see the following:,2,1607629162416,NA,It is small relative to other,NA,1.25,NA,NA,NA,congruent,custom_main_text2,small,Your friend says: <br/><b>That small bonsai is a landmark.</b>
2329,What do you think your friend is saying it is big relative to?,NA,images/doberman.png,images/dog-parade-basic.png,35,NA,NA,critical,NA,No.,2,dogs1,mary,NA,NA,yes,Your friend goes ahead of you. You see your friend in the distance:,NA,pred,service-animal,doberman,22,doberman,No comments.,NA,NA,graduated_college,big,NA,English,male,14623,NA,You and your friend are at an animal training ground and you see the following:,3,1607629162416,NA,It is big relative to other,NA,1.25,NA,NA,NA,congruent,custom_main_text2,big,Your friend says: <br/><b>That service-animal is a big doberman.</b>
2329,What do you think your friend is saying it is big relative to?,NA,images/redwood_filler.png,images/tree-parade-basic_filler.png,35,NA,NA,filler,NA,No.,2,trees,mary,NA,NA,yes,Your friend goes ahead of you. You see your friend in the distance:,NA,pred,landmark,redwood,22,trees,No comments.,NA,NA,graduated_college,big,NA,English,male,6361,NA,You and your friend see the following:,4,1607629162416,NA,It is big relative to other,NA,1.25,NA,NA,NA,congruent,custom_main_text2,big,Your friend says: <br/><b>That's a big redwood.</b>
2330,NA,dubarman,NA,NA,35,warmup/chihuahua2.png,doberman,NA,This is a,No,2,dogs1,margaret,NA,chihuahua,yes,Please label the pictures below.,NA,NA,NA,NA,48,NA,Great,warmup/doberman2.png,dog,graduated_college,NA,NA,English,male,NA,dogs,NA,1,1607628233729,1,NA,This is a,100,These are both,chihua,NA,NA,warmup1,NA,NA
2330,NA,doberman,NA,NA,35,warmup/chihuahua2.png,doberman,NA,This is a,No,2,dogs1,margaret,NA,chihuahua,yes,Please label the pictures below.,NA,NA,NA,NA,48,NA,Great,warmup/doberman2.png,dog,graduated_college,NA,NA,English,male,NA,dogs,NA,1,1607628233729,2,NA,This is a,100,These are both,chihuahua,NA,NA,warmup1,NA,NA
2330,NA,sunflower,NA,NA,35,warmup/dandelion2.png,sunflower,NA,This is a,No,2,flowers,margaret,NA,dandelion,yes,Please label the pictures below.,NA,NA,NA,NA,48,NA,Great,warmup/sunflower2.png,flower,graduated_college,NA,NA,English,male,NA,flowers,NA,2,1607628233729,1,NA,This is a,100,These are both,dandelion,NA,NA,warmup1,NA,NA
2330,<i>What do you think Speaker A meant? </i>,NA,NA,NA,35,NA,NA,NA,NA,No,2,NA,margaret,1,NA,yes,NA,"<b> Speaker A: ""The Empire State Building is tall.""</b>",NA,NA,NA,48,The Empire State Building is tall,Great,NA,NA,graduated_college,NA,comp_class_warmup,English,male,NA,NA,In the main trials you will be asked to rephrase something a person said. The utterance will contain a word that is <i>relative</i> and your task is to figure out what it is relative to. <br /> <br /> For example: <br />,1,1607628233729,1,The Empire State Building is tall relative to other,NA,100,NA,NA,"buildings, skyscrapers, houses, constructions (choose one)",NA,comp_class_warmup,NA,NA
2330,<i>What do you think Speaker A meant? </i>,NA,NA,NA,35,NA,NA,NA,NA,No,2,NA,margaret,1,NA,yes,NA,"<b> Speaker A: ""The Empire State Building is tall.""</b>",NA,NA,NA,48,skyscrapers,Great,NA,NA,graduated_college,NA,comp_class_warmup,English,male,NA,NA,In the main trials you will be asked to rephrase something a person said. The utterance will contain a word that is <i>relative</i> and your task is to figure out what it is relative to. <br /> <br /> For example: <br />,1,1607628233729,2,The Empire State Building is tall relative to other,NA,100,NA,NA,"buildings, skyscrapers, houses, constructions (choose one)",NA,comp_class_warmup,NA,NA
2330,What do you think your friend is saying it is big relative to?,NA,images/doberman_filler.png,images/dog-parade-basic_filler.png,35,NA,NA,filler,NA,No,2,dogs1,margaret,NA,NA,yes,Your friend goes ahead of you. You see your friend in the distance:,NA,pred,service-animal,doberman,48,doberman,Great,NA,NA,graduated_college,big,NA,English,male,14297,NA,You and your friend see the following:,1,1607628233729,NA,It is big relative to other,NA,100,NA,NA,NA,congruent,custom_main_text1,big,Your friend says: <br/><b>That's a big doberman.</b>
2330,What do you think your friend is saying it is big relative to?,NA,images/sunflower.png,images/flower-parade-basic.png,35,NA,NA,critical,NA,No,2,flowers,margaret,NA,NA,yes,Your friend goes ahead of you. You see your friend in the distance:,NA,pred,gift,sunflower,48,doberman,Great,NA,NA,graduated_college,big,NA,English,male,9551,NA,You and your friend are at a garden store and you see the following:,2,1607628233729,NA,It is big relative to other,NA,100,NA,NA,NA,congruent,custom_main_text1,big,Your friend says: <br/><b>That gift is a big sunflower.</b>
2330,What do you think your friend is saying it is small relative to?,NA,images/chihuahua.png,images/dog-parade-basic.png,35,NA,NA,critical,NA,No,2,dogs1,margaret,NA,NA,yes,Your friend goes ahead of you. You see your friend in the distance:,NA,subj,service-animal,chihuahua,48,chihuahua,Great,NA,NA,graduated_college,small,NA,English,male,50504,NA,You and your friend are at an animal training ground and you see the following:,3,1607628233729,NA,It is small relative to other,NA,100,NA,NA,NA,congruent,custom_main_text1,small,Your friend says: <br/><b>That small chihuahua is a service-animal.</b>
2330,What do you think your friend is saying it is small relative to?,NA,images/dandelion_filler.png,images/flower-parade-basic_filler.png,35,NA,NA,filler,NA,No,2,flowers,margaret,NA,NA,yes,Your friend goes ahead of you. You see your friend in the distance:,NA,subj,gift,dandelion,48,dandelion,Great,NA,NA,graduated_college,small,NA,English,male,17760,NA,You and your friend see the following:,4,1607628233729,NA,It is small relative to other,NA,100,NA,NA,NA,congruent,custom_main_text1,small,Your friend says: <br/><b>That dandelion is small.</b>
2330,NA,stripmall,NA,NA,35,warmup/skyscraper2.png,stripmall,NA,This is a,No,2,buildings,margaret,NA,skyscraper,yes,Please label the pictures below.,NA,NA,NA,NA,48,NA,Great,warmup/stripmall2.png,building,graduated_college,NA,NA,English,male,NA,buildings,NA,1,1607628233729,1,NA,This is a,100,These are both,skyscraper,NA,NA,warmup2,NA,NA
2330,NA,pug,NA,NA,35,warmup/great-dane2.png,pug,NA,This is a,No,2,dogs2,margaret,NA,great dane,yes,Please label the pictures below.,NA,NA,NA,NA,48,NA,Great,warmup/pug2.png,dogs,graduated_college,NA,NA,English,male,NA,dogs,NA,2,1607628233729,1,NA,This is a,100,These are both,dane,NA,NA,warmup2,NA,NA
2330,NA,pug,NA,NA,35,warmup/great-dane2.png,pug,NA,This is a,No,2,dogs2,margaret,NA,great dane,yes,Please label the pictures below.,NA,NA,NA,NA,48,NA,Great,warmup/pug2.png,dogs,graduated_college,NA,NA,English,male,NA,dogs,NA,2,1607628233729,2,NA,This is a,100,These are both,dane,NA,NA,warmup2,NA,NA
2330,NA,pug,NA,NA,35,warmup/great-dane2.png,pug,NA,This is a,No,2,dogs2,margaret,NA,great dane,yes,Please label the pictures below.,NA,NA,NA,NA,48,NA,Great,warmup/pug2.png,dogs,graduated_college,NA,NA,English,male,NA,dogs,NA,2,1607628233729,3,NA,This is a,100,These are both,dane,NA,NA,warmup2,NA,NA
2330,NA,pug,NA,NA,35,warmup/great-dane2.png,pug,NA,This is a,No,2,dogs2,margaret,NA,great dane,yes,Please label the pictures below.,NA,NA,NA,NA,48,NA,Great,warmup/pug2.png,NA,graduated_college,NA,NA,English,male,NA,dogs,NA,2,1607628233729,4,NA,This is a,100,These are both,dane,NA,NA,warmup2,NA,NA
2330,NA,pug,NA,NA,35,warmup/great-dane2.png,pug,NA,This is a,No,2,dogs2,margaret,NA,great dane,yes,Please label the pictures below.,NA,NA,NA,NA,48,NA,Great,warmup/pug2.png,NA,graduated_college,NA,NA,English,male,NA,dogs,NA,2,1607628233729,5,NA,This is a,100,These are both,dane,NA,NA,warmup2,NA,NA
2330,NA,pug,NA,NA,35,warmup/great-dane2.png,pug,NA,This is a,No,2,dogs2,margaret,NA,great dane,yes,Please label the pictures below.,NA,NA,NA,NA,48,NA,Great,warmup/pug2.png,dogs,graduated_college,NA,NA,English,male,NA,dogs,NA,2,1607628233729,6,NA,This is a,100,These are both,great dane,NA,NA,warmup2,NA,NA
2330,What do you think your friend is saying it is big relative to?,NA,images/skyscraper-landmark-filler.png,images/buildings-parade-basic_filler.png,35,NA,NA,filler,NA,No,2,buildings,margaret,NA,NA,yes,Your friend goes ahead of you. You see your friend in the distance:,NA,subj,landmark,skyscraper,48,skyscraper,Great,NA,NA,graduated_college,big,NA,English,male,38272,NA,You and your friend see the following:,1,1607628233729,NA,It is big relative to other,NA,100,NA,NA,NA,congruent,custom_main_text2,big,Your friend says: <br/><b>That skyscraper is big.</b>
2330,What do you think your friend is saying it is small relative to?,NA,images/pug_filler.png,images/dog-parade-basic2_filler.png,35,NA,NA,filler,NA,No,2,dogs2,margaret,NA,NA,yes,Your friend goes ahead of you. You see your friend in the distance:,NA,pred,prize-winner,pug,48,pug,Great,NA,NA,graduated_college,small,NA,English,male,8496,NA,You and your friend see the following:,2,1607628233729,NA,It is small relative to other,NA,100,NA,NA,NA,congruent,custom_main_text2,small,Your friend says: <br/><b>That's a small pug.</b>
2330,What do you think your friend is saying it is big relative to?,NA,images/great-dane.png,images/dog-parade-basic2.png,35,NA,NA,critical,NA,No,2,dogs2,margaret,NA,NA,yes,Your friend goes ahead of you. You see your friend in the distance:,NA,subj,prize-winner,Great Dane,48,Great Dane,Great,NA,NA,graduated_college,big,NA,English,male,47455,NA,You and your friend are at a pet show and you see the following:,3,1607628233729,NA,It is big relative to other,NA,100,NA,NA,NA,congruent,custom_main_text2,big,Your friend says: <br/><b>That big Great Dane is a prize-winner.</b>
2330,What do you think your friend is saying it is small relative to?,NA,images/stripmall-landmark.png,images/buildings-parade-basic.png,35,NA,NA,critical,NA,No,2,buildings,margaret,NA,NA,yes,Your friend goes ahead of you. You see your friend in the distance:,NA,pred,landmark,stripmall,48,stripmall,Great,NA,NA,graduated_college,small,NA,English,male,6742,NA,You visit your friend who lives in another city. You take a walk and you see the following:,4,1607628233729,NA,It is small relative to other,NA,100,NA,NA,NA,congruent,custom_main_text2,small,Your friend says: <br/><b>That landmark is a small stripmall.</b>
2331,NA,Sunflower,NA,NA,35,warmup/dandelion2.png,sunflower,NA,This is a,None.,2,flowers,jennifer,NA,dandelion,yes,Please label the pictures below.,NA,NA,NA,NA,45,NA,Thank you.,warmup/sunflower2.png,Flower,higher_degree,NA,NA,English,male,NA,flowers,NA,1,1607629096572,1,NA,This is a,0.08,These are both,dandelion,NA,NA,warmup1,NA,NA
2331,NA,Great Dane,NA,NA,35,warmup/pug2.png,great dane,NA,This is a,None.,2,dogs2,jennifer,NA,pug,yes,Please label the pictures below.,NA,NA,NA,NA,45,NA,Thank you.,warmup/great-dane2.png,Animal,higher_degree,NA,NA,English,male,NA,dogs,NA,2,1607629096572,1,NA,This is a,0.08,These are both,Pug,NA,NA,warmup1,NA,NA
2331,NA,Great Dane,NA,NA,35,warmup/pug2.png,great dane,NA,This is a,None.,2,dogs2,jennifer,NA,pug,yes,Please label the pictures below.,NA,NA,NA,NA,45,NA,Thank you.,warmup/great-dane2.png,Dogs,higher_degree,NA,NA,English,male,NA,dogs,NA,2,1607629096572,2,NA,This is a,0.08,These are both,Pug,NA,NA,warmup1,NA,NA
2331,<i>What do you think Speaker A meant? </i>,NA,NA,NA,35,NA,NA,NA,NA,None.,2,NA,jennifer,1,NA,yes,NA,"<b> Speaker A: ""The Empire State Building is tall.""</b>",NA,NA,NA,45,Yes.I think it's tall,Thank you.,NA,NA,higher_degree,NA,comp_class_warmup,English,male,NA,NA,In the main trials you will be asked to rephrase something a person said. The utterance will contain a word that is <i>relative</i> and your task is to figure out what it is relative to. <br /> <br /> For example: <br />,1,1607629096572,1,The Empire State Building is tall relative to other,NA,0.08,NA,NA,"buildings, skyscrapers, houses, constructions (choose one)",NA,comp_class_warmup,NA,NA
2331,<i>What do you think Speaker A meant? </i>,NA,NA,NA,35,NA,NA,NA,NA,None.,2,NA,jennifer,1,NA,yes,NA,"<b> Speaker A: ""The Empire State Building is tall.""</b>",NA,NA,NA,45,buildings,Thank you.,NA,NA,higher_degree,NA,comp_class_warmup,English,male,NA,NA,In the main trials you will be asked to rephrase something a person said. The utterance will contain a word that is <i>relative</i> and your task is to figure out what it is relative to. <br /> <br /> For example: <br />,1,1607629096572,2,The Empire State Building is tall relative to other,NA,0.08,NA,NA,"buildings, skyscrapers, houses, constructions (choose one)",NA,comp_class_warmup,NA,NA
2331,What do you think your friend is saying it is small relative to?,NA,images/pug_filler.png,images/dog-parade-basic2_filler.png,35,NA,NA,filler,NA,None.,2,dogs2,jennifer,NA,NA,yes,Your friend goes ahead of you. You see your friend in the distance:,NA,pred,prize-winner,pug,45,Pug,Thank you.,NA,NA,higher_degree,small,NA,English,male,28752,NA,You and your friend see the following:,1,1607629096572,NA,It is small relative to other,NA,0.08,NA,NA,NA,congruent,custom_main_text1,small,Your friend says: <br/><b>That's a small pug.</b>
2331,What do you think your friend is saying it is big relative to?,NA,images/great-dane.png,images/dog-parade-basic2.png,35,NA,NA,critical,NA,None.,2,dogs2,jennifer,NA,NA,yes,Your friend goes ahead of you. You see your friend in the distance:,NA,subj,prize-winner,Great Dane,45,Great Dane,Thank you.,NA,NA,higher_degree,big,NA,English,male,16439,NA,You and your friend are at a pet show and you see the following:,2,1607629096572,NA,It is big relative to other,NA,0.08,NA,NA,NA,congruent,custom_main_text1,big,Your friend says: <br/><b>That big Great Dane is a prize-winner.</b>
2331,What do you think your friend is saying it is big relative to?,NA,images/sunflower.png,images/flower-parade-basic.png,35,NA,NA,critical,NA,None.,2,flowers,jennifer,NA,NA,yes,Your friend goes ahead of you. You see your friend in the distance:,NA,pred,gift,sunflower,45,Sunflower,Thank you.,NA,NA,higher_degree,big,NA,English,male,16816,NA,You and your friend are at a garden store and you see the following:,3,1607629096572,NA,It is big relative to other,NA,0.08,NA,NA,NA,congruent,custom_main_text1,big,Your friend says: <br/><b>That gift is a big sunflower.</b>
2331,What do you think your friend is saying it is small relative to?,NA,images/dandelion_filler.png,images/flower-parade-basic_filler.png,35,NA,NA,filler,NA,None.,2,flowers,jennifer,NA,NA,yes,Your friend goes ahead of you. You see your friend in the distance:,NA,subj,gift,dandelion,45,deandal,Thank you.,NA,NA,higher_degree,small,NA,English,male,15784,NA,You and your friend see the following:,4,1607629096572,NA,It is small relative to other,NA,0.08,NA,NA,NA,congruent,custom_main_text1,small,Your friend says: <br/><b>That dandelion is small.</b>
2331,NA,Bonsai,NA,NA,35,warmup/redwood2.png,bonsai,NA,This is a,None.,2,trees,jennifer,NA,redwood or sequoia (choose one),yes,Please label the pictures below.,NA,NA,NA,NA,45,NA,Thank you.,warmup/bonsai2.png,Tree,higher_degree,NA,NA,English,male,NA,trees,NA,1,1607629096572,1,NA,This is a,0.08,These are both,Redwood,NA,NA,warmup2,NA,NA
2331,NA,Doberman,NA,NA,35,warmup/chihuahua2.png,doberman,NA,This is a,None.,2,dogs1,jennifer,NA,chihuahua,yes,Please label the pictures below.,NA,NA,NA,NA,45,NA,Thank you.,warmup/doberman2.png,Animal,higher_degree,NA,NA,English,male,NA,dogs,NA,2,1607629096572,1,NA,This is a,0.08,These are both,Chihuahua,NA,NA,warmup2,NA,NA
2331,NA,Doberman,NA,NA,35,warmup/chihuahua2.png,doberman,NA,This is a,None.,2,dogs1,jennifer,NA,chihuahua,yes,Please label the pictures below.,NA,NA,NA,NA,45,NA,Thank you.,warmup/doberman2.png,dogs,higher_degree,NA,NA,English,male,NA,dogs,NA,2,1607629096572,2,NA,This is a,0.08,These are both,Chihuahua,NA,NA,warmup2,NA,NA
2331,What do you think your friend is saying it is big relative to?,NA,images/redwood_filler.png,images/tree-parade-basic_filler.png,35,NA,NA,filler,NA,None.,2,trees,jennifer,NA,NA,yes,Your friend goes ahead of you. You see your friend in the distance:,NA,pred,landmark,redwood,45,redwood,Thank you.,NA,NA,higher_degree,big,NA,English,male,13609,NA,You and your friend see the following:,1,1607629096572,NA,It is big relative to other,NA,0.08,NA,NA,NA,congruent,custom_main_text2,big,Your friend says: <br/><b>That's a big redwood.</b>
2331,What do you think your friend is saying it is small relative to?,NA,images/bonsai_stick.png,images/tree-parade-basic.png,35,NA,NA,critical,NA,None.,2,trees,jennifer,NA,NA,yes,Your friend goes ahead of you. You see your friend in the distance:,NA,subj,landmark,bonsai,45,bonsai,Thank you.,NA,NA,higher_degree,small,NA,English,male,12144,NA,You and your friend walk to your friend's cabin in a park for the first time. You want to memorize the path and you see the following:,2,1607629096572,NA,It is small relative to other,NA,0.08,NA,NA,NA,congruent,custom_main_text2,small,Your friend says: <br/><b>That small bonsai is a landmark.</b>
2331,What do you think your friend is saying it is big relative to?,NA,images/doberman_filler.png,images/dog-parade-basic_filler.png,35,NA,NA,filler,NA,None.,2,dogs1,jennifer,NA,NA,yes,Your friend goes ahead of you. You see your friend in the distance:,NA,subj,service-animal,doberman,45,doberman,Thank you.,NA,NA,higher_degree,big,NA,English,male,12240,NA,You and your friend see the following:,3,1607629096572,NA,It is big relative to other,NA,0.08,NA,NA,NA,congruent,custom_main_text2,big,Your friend says: <br/><b>That doberman is big.</b>
2331,What do you think your friend is saying it is small relative to?,NA,images/chihuahua.png,images/dog-parade-basic.png,35,NA,NA,critical,NA,None.,2,dogs1,jennifer,NA,NA,yes,Your friend goes ahead of you. You see your friend in the distance:,NA,pred,service-animal,chihuahua,45,chihuahua,Thank you.,NA,NA,higher_degree,small,NA,English,male,9447,NA,You and your friend are at an animal training ground and you see the following:,4,1607629096572,NA,It is small relative to other,NA,0.08,NA,NA,NA,congruent,custom_main_text2,small,Your friend says: <br/><b>That service-animal is a small chihuahua.</b>
2337,NA,doberman,NA,NA,35,warmup/chihuahua2.png,doberman,NA,This is a,No,2,dogs1,jennifer,NA,chihuahua,yes,Please label the pictures below.,NA,NA,NA,NA,26,NA,NA,warmup/doberman2.png,dogs,graduated_college,NA,NA,English,female,NA,dogs,NA,1,1607629959818,1,NA,This is a,1,These are both,chihuahua,NA,NA,warmup1,NA,NA
2337,NA,sunflower,NA,NA,35,warmup/dandelion2.png,sunflower,NA,This is a,No,2,flowers,jennifer,NA,dandelion,yes,Please label the pictures below.,NA,NA,NA,NA,26,NA,NA,warmup/sunflower2.png,flowers,graduated_college,NA,NA,English,female,NA,flowers,NA,2,1607629959818,1,NA,This is a,1,These are both,dandelion,NA,NA,warmup1,NA,NA
2337,<i>What do you think Speaker A meant? </i>,NA,NA,NA,35,NA,NA,NA,NA,No,2,NA,jennifer,1,NA,yes,NA,"<b> Speaker A: ""The Empire State Building is tall.""</b>",NA,NA,NA,26,buildings,NA,NA,NA,graduated_college,NA,comp_class_warmup,English,female,NA,NA,In the main trials you will be asked to rephrase something a person said. The utterance will contain a word that is <i>relative</i> and your task is to figure out what it is relative to. <br /> <br /> For example: <br />,1,1607629959818,1,The Empire State Building is tall relative to other,NA,1,NA,NA,"buildings, skyscrapers, houses, constructions (choose one)",NA,comp_class_warmup,NA,NA
2337,What do you think your friend is saying it is big relative to?,NA,images/sunflower_filler.png,images/flower-parade-basic_filler.png,35,NA,NA,filler,NA,No,2,flowers,jennifer,NA,NA,yes,Your friend goes ahead of you. You see your friend in the distance:,NA,pred,landmark,sunflower,26,flowers,NA,NA,NA,graduated_college,big,NA,English,female,8512,NA,You and your friend see the following:,1,1607629959818,NA,It is big relative to other,NA,1,NA,NA,NA,congruent,custom_main_text1,big,Your friend says: <br/><b>That's a big sunflower.</b>
2337,What do you think your friend is saying it is small relative to?,NA,images/dandelion-landmark.png,images/flower-parade-basic-landmark.png,35,NA,NA,critical,NA,No,2,flowers,jennifer,NA,NA,yes,Your friend goes ahead of you. You see your friend in the distance:,NA,subj,landmark,dandelion,26,landmarks,NA,NA,NA,graduated_college,small,NA,English,female,15624,NA,You and your friend walk to a cabin you are renting for the weekend for the first time. You go along the path and you see the following:,2,1607629959818,NA,It is small relative to other,NA,1,NA,NA,NA,congruent,custom_main_text1,small,Your friend says: <br/><b>That small dandelion is a landmark.</b>
2337,What do you think your friend is saying it is small relative to?,NA,images/chihuahua_filler.png,images/dog-parade-basic_filler.png,35,NA,NA,filler,NA,No,2,dogs1,jennifer,NA,NA,yes,Your friend goes ahead of you. You see your friend in the distance:,NA,subj,service-animal,chihuahua,26,dogs,NA,NA,NA,graduated_college,small,NA,English,female,6888,NA,You and your friend see the following:,3,1607629959818,NA,It is small relative to other,NA,1,NA,NA,NA,congruent,custom_main_text1,small,Your friend says: <br/><b>That chihuahua is small.</b>
2337,What do you think your friend is saying it is big relative to?,NA,images/doberman.png,images/dog-parade-basic.png,35,NA,NA,critical,NA,No,2,dogs1,jennifer,NA,NA,yes,Your friend goes ahead of you. You see your friend in the distance:,NA,pred,service-animal,doberman,26,service-animal,NA,NA,NA,graduated_college,big,NA,English,female,17736,NA,You and your friend are at an animal training ground and you see the following:,4,1607629959818,NA,It is big relative to other,NA,1,NA,NA,NA,congruent,custom_main_text1,big,Your friend says: <br/><b>That service-animal is a big doberman.</b>
2337,NA,Great Dane,NA,NA,35,warmup/pug2.png,great dane,NA,This is a,No,2,dogs2,jennifer,NA,pug,yes,Please label the pictures below.,NA,NA,NA,NA,26,NA,NA,warmup/great-dane2.png,dogs,graduated_college,NA,NA,English,female,NA,dogs,NA,1,1607629959818,1,NA,This is a,1,These are both,pug,NA,NA,warmup2,NA,NA
2337,NA,eagle,NA,NA,35,warmup/hummingbird2.png,eagle,NA,This is a,No,2,birds,jennifer,NA,hummingbird,yes,Please label the pictures below.,NA,NA,NA,NA,26,NA,NA,warmup/eagle2.png,birds,graduated_college,NA,NA,English,female,NA,birds,NA,2,1607629959818,1,NA,This is an,1,These are both,hummingbird,NA,NA,warmup2,NA,NA
2337,What do you think your friend is saying it is small relative to?,NA,images/pug_filler.png,images/dog-parade-basic2_filler.png,35,NA,NA,filler,NA,No,2,dogs2,jennifer,NA,NA,yes,Your friend goes ahead of you. You see your friend in the distance:,NA,pred,gift,pug,26,dogs,NA,NA,NA,graduated_college,small,NA,English,female,8505,NA,You and your friend see the following:,1,1607629959818,NA,It is small relative to other,NA,1,NA,NA,NA,congruent,custom_main_text2,small,Your friend says: <br/><b>That's a small pug.</b>
2337,What do you think your friend is saying it is small relative to?,NA,images/hummingbird.png,images/bird-parade-basic.png,35,NA,NA,critical,NA,No,2,birds,jennifer,NA,NA,yes,Your friend goes ahead of you. You see your friend in the distance:,NA,pred,rescue,hummingbird,26,rescue,NA,NA,NA,graduated_college,small,NA,English,female,7256,NA,You visit your friend who works at an animal shelter and you see the following:,2,1607629959818,NA,It is small relative to other,NA,1,NA,NA,NA,congruent,custom_main_text2,small,Your friend says: <br/><b>That rescue is a small hummingbird.</b>
2337,What do you think your friend is saying it is big relative to?,NA,images/eagle_filler.png,images/bird-parade-basic_filler.png,35,NA,NA,filler,NA,No,2,birds,jennifer,NA,NA,yes,Your friend goes ahead of you. You see your friend in the distance:,NA,subj,rescue,eagle,26,birds,NA,NA,NA,graduated_college,big,NA,English,female,5191,NA,You and your friend see the following:,3,1607629959818,NA,It is big relative to other,NA,1,NA,NA,NA,congruent,custom_main_text2,big,Your friend says: <br/><b>That eagle is big.</b>
2337,What do you think your friend is saying it is big relative to?,NA,images/great-dane-gift.png,images/dog-parade-basic2-gift.png,35,NA,NA,critical,NA,No,2,dogs2,jennifer,NA,NA,yes,Your friend goes ahead of you. You see your friend in the distance:,NA,subj,gift,Great Dane,26,dogs,NA,NA,NA,graduated_college,big,NA,English,female,11352,NA,You and your friend are at a pet store and you see the following:,4,1607629959818,NA,It is big relative to other,NA,1,NA,NA,NA,congruent,custom_main_text2,big,Your friend says: <br/><b>That big Great Dane is a gift.</b>
2339,NA,pug,NA,NA,35,warmup/great-dane2.png,pug,NA,This is a,No,2,dogs2,Patricia,NA,great dane,yes,Please label the pictures below.,NA,NA,NA,NA,32,NA,NA,warmup/pug2.png,dogs,graduated_college,NA,NA,English,male,NA,dogs,NA,1,1607629942647,1,NA,This is a,1,These are both,Great Dane,NA,NA,warmup1,NA,NA
2339,NA,dandelion,NA,NA,35,warmup/sunflower2.png,dandelion,NA,This is a,No,2,flowers,Patricia,NA,sunflower,yes,Please label the pictures below.,NA,NA,NA,NA,32,NA,NA,warmup/dandelion2.png,plants,graduated_college,NA,NA,English,male,NA,flowers,NA,2,1607629942647,1,NA,This is a,1,These are both,sunflower,NA,NA,warmup1,NA,NA
2339,NA,dandelion,NA,NA,35,warmup/sunflower2.png,dandelion,NA,This is a,No,2,flowers,Patricia,NA,sunflower,yes,Please label the pictures below.,NA,NA,NA,NA,32,NA,NA,warmup/dandelion2.png,flowers,graduated_college,NA,NA,English,male,NA,flowers,NA,2,1607629942647,2,NA,This is a,1,These are both,sunflower,NA,NA,warmup1,NA,NA
2339,<i>What do you think Speaker A meant? </i>,NA,NA,NA,35,NA,NA,NA,NA,No,2,NA,Patricia,1,NA,yes,NA,"<b> Speaker A: ""The Empire State Building is tall.""</b>",NA,NA,NA,32,buildings,NA,NA,NA,graduated_college,NA,comp_class_warmup,English,male,NA,NA,In the main trials you will be asked to rephrase something a person said. The utterance will contain a word that is <i>relative</i> and your task is to figure out what it is relative to. <br /> <br /> For example: <br />,1,1607629942647,1,The Empire State Building is tall relative to other,NA,1,NA,NA,"buildings, skyscrapers, houses, constructions (choose one)",NA,comp_class_warmup,NA,NA
2339,What do you think your friend is saying it is small relative to?,NA,images/pug_filler.png,images/dog-parade-basic2_filler.png,35,NA,NA,filler,NA,No,2,dogs2,Patricia,NA,NA,yes,Your friend goes ahead of you. You see your friend in the distance:,NA,pred,prize-winner,pug,32,dogs,NA,NA,NA,graduated_college,small,NA,English,male,13586,NA,You and your friend see the following:,1,1607629942647,NA,It is small relative to other,NA,1,NA,NA,NA,congruent,custom_main_text1,small,Your friend says: <br/><b>That's a small pug.</b>
2339,What do you think your friend is saying it is big relative to?,NA,images/sunflower_filler.png,images/flower-parade-basic_filler.png,35,NA,NA,filler,NA,No,2,flowers,Patricia,NA,NA,yes,Your friend goes ahead of you. You see your friend in the distance:,NA,pred,landmark,sunflower,32,flowers,NA,NA,NA,graduated_college,big,NA,English,male,7355,NA,You and your friend see the following:,2,1607629942647,NA,It is big relative to other,NA,1,NA,NA,NA,congruent,custom_main_text1,big,Your friend says: <br/><b>That's a big sunflower.</b>
2339,What do you think your friend is saying it is small relative to?,NA,images/dandelion-landmark.png,images/flower-parade-basic-landmark.png,35,NA,NA,critical,NA,No,2,flowers,Patricia,NA,NA,yes,Your friend goes ahead of you. You see your friend in the distance:,NA,subj,landmark,dandelion,32,landmarks,NA,NA,NA,graduated_college,small,NA,English,male,17407,NA,You and your friend walk to a cabin you are renting for the weekend for the first time. You go along the path and you see the following:,3,1607629942647,NA,It is small relative to other,NA,1,NA,NA,NA,congruent,custom_main_text1,small,Your friend says: <br/><b>That small dandelion is a landmark.</b>
2339,What do you think your friend is saying it is big relative to?,NA,images/great-dane.png,images/dog-parade-basic2.png,35,NA,NA,critical,NA,No,2,dogs2,Patricia,NA,NA,yes,Your friend goes ahead of you. You see your friend in the distance:,NA,subj,prize-winner,Great Dane,32,prize-winners,NA,NA,NA,graduated_college,big,NA,English,male,14465,NA,You and your friend are at a pet show and you see the following:,4,1607629942647,NA,It is big relative to other,NA,1,NA,NA,NA,congruent,custom_main_text1,big,Your friend says: <br/><b>That big Great Dane is a prize-winner.</b>
2339,NA,doberman,NA,NA,35,warmup/chihuahua2.png,doberman,NA,This is a,No,2,dogs1,Patricia,NA,chihuahua,yes,Please label the pictures below.,NA,NA,NA,NA,32,NA,NA,warmup/doberman2.png,dogs,graduated_college,NA,NA,English,male,NA,dogs,NA,1,1607629942647,1,NA,This is a,1,These are both,chihuahua,NA,NA,warmup2,NA,NA
2339,NA,hummingbird,NA,NA,35,warmup/eagle2.png,hummingbird,NA,This is a,No,2,birds,Patricia,NA,eagle,yes,Please label the pictures below.,NA,NA,NA,NA,32,NA,NA,warmup/hummingbird2.png,birds,graduated_college,NA,NA,English,male,NA,birds,NA,2,1607629942647,1,NA,This is an,1,These are both,eagle,NA,NA,warmup2,NA,NA
2339,What do you think your friend is saying it is small relative to?,NA,images/chihuahua_filler.png,images/dog-parade-basic_filler.png,35,NA,NA,filler,NA,No,2,dogs1,Patricia,NA,NA,yes,Your friend goes ahead of you. You see your friend in the distance:,NA,subj,service-animal,chihuahua,32,dogs,NA,NA,NA,graduated_college,small,NA,English,male,8052,NA,You and your friend see the following:,1,1607629942647,NA,It is small relative to other,NA,1,NA,NA,NA,congruent,custom_main_text2,small,Your friend says: <br/><b>That chihuahua is small.</b>
2339,What do you think your friend is saying it is small relative to?,NA,images/hummingbird.png,images/bird-parade-basic.png,35,NA,NA,critical,NA,No,2,birds,Patricia,NA,NA,yes,Your friend goes ahead of you. You see your friend in the distance:,NA,pred,rescue,hummingbird,32,birds,NA,NA,NA,graduated_college,small,NA,English,male,8446,NA,You visit your friend who works at an animal shelter and you see the following:,2,1607629942647,NA,It is small relative to other,NA,1,NA,NA,NA,congruent,custom_main_text2,small,Your friend says: <br/><b>That rescue is a small hummingbird.</b>
2339,What do you think your friend is saying it is big relative to?,NA,images/eagle_filler.png,images/bird-parade-basic_filler.png,35,NA,NA,filler,NA,No,2,birds,Patricia,NA,NA,yes,Your friend goes ahead of you. You see your friend in the distance:,NA,subj,rescue,eagle,32,birds,NA,NA,NA,graduated_college,big,NA,English,male,8002,NA,You and your friend see the following:,3,1607629942647,NA,It is big relative to other,NA,1,NA,NA,NA,congruent,custom_main_text2,big,Your friend says: <br/><b>That eagle is big.</b>
2339,What do you think your friend is saying it is big relative to?,NA,images/doberman.png,images/dog-parade-basic.png,35,NA,NA,critical,NA,No,2,dogs1,Patricia,NA,NA,yes,Your friend goes ahead of you. You see your friend in the distance:,NA,pred,service-animal,doberman,32,dogs,NA,NA,NA,graduated_college,big,NA,English,male,16755,NA,You and your friend are at an animal training ground and you see the following:,4,1607629942647,NA,It is big relative to other,NA,1,NA,NA,NA,congruent,custom_main_text2,big,Your friend says: <br/><b>That service-animal is a big doberman.</b>
2340,NA,chihuahua,NA,NA,35,warmup/doberman2.png,chihuahua,NA,This is a,no,2,dogs1,linda,NA,doberman,yes,Please label the pictures below.,NA,NA,NA,NA,21,NA,NA,warmup/chihuahua2.png,dogs,some_college,NA,NA,"English, Mandarin",female,NA,dogs,NA,1,1607629965760,1,NA,This is a,0.75,These are both,doberman,NA,NA,warmup1,NA,NA
2340,NA,sunflower,NA,NA,35,warmup/dandelion2.png,sunflower,NA,This is a,no,2,flowers,linda,NA,dandelion,yes,Please label the pictures below.,NA,NA,NA,NA,21,NA,NA,warmup/sunflower2.png,flowers,some_college,NA,NA,"English, Mandarin",female,NA,flowers,NA,2,1607629965760,1,NA,This is a,0.75,These are both,dandelion,NA,NA,warmup1,NA,NA
2340,<i>What do you think Speaker A meant? </i>,NA,NA,NA,35,NA,NA,NA,NA,no,2,NA,linda,1,NA,yes,NA,"<b> Speaker A: ""The Empire State Building is tall.""</b>",NA,NA,NA,21,landmarks,NA,NA,NA,some_college,NA,comp_class_warmup,"English, Mandarin",female,NA,NA,In the main trials you will be asked to rephrase something a person said. The utterance will contain a word that is <i>relative</i> and your task is to figure out what it is relative to. <br /> <br /> For example: <br />,1,1607629965760,1,The Empire State Building is tall relative to other,NA,0.75,NA,NA,"buildings, skyscrapers, houses, constructions (choose one)",NA,comp_class_warmup,NA,NA
2340,<i>What do you think Speaker A meant? </i>,NA,NA,NA,35,NA,NA,NA,NA,no,2,NA,linda,1,NA,yes,NA,"<b> Speaker A: ""The Empire State Building is tall.""</b>",NA,NA,NA,21,buildings,NA,NA,NA,some_college,NA,comp_class_warmup,"English, Mandarin",female,NA,NA,In the main trials you will be asked to rephrase something a person said. The utterance will contain a word that is <i>relative</i> and your task is to figure out what it is relative to. <br /> <br /> For example: <br />,1,1607629965760,2,The Empire State Building is tall relative to other,NA,0.75,NA,NA,"buildings, skyscrapers, houses, constructions (choose one)",NA,comp_class_warmup,NA,NA
2340,What do you think your friend is saying it is small relative to?,NA,images/chihuahua_filler.png,images/dog-parade-basic_filler.png,35,NA,NA,filler,NA,no,2,dogs1,linda,NA,NA,yes,Your friend goes ahead of you. You see your friend in the distance:,NA,subj,service-animal,chihuahua,21,dogs,NA,NA,NA,some_college,small,NA,"English, Mandarin",female,9544,NA,You and your friend see the following:,1,1607629965760,NA,It is small relative to other,NA,0.75,NA,NA,NA,congruent,custom_main_text1,small,Your friend says: <br/><b>That chihuahua is small.</b>
2340,What do you think your friend is saying it is big relative to?,NA,images/sunflower_filler.png,images/flower-parade-basic_filler.png,35,NA,NA,filler,NA,no,2,flowers,linda,NA,NA,yes,Your friend goes ahead of you. You see your friend in the distance:,NA,subj,gift,sunflower,21,sunflowers,NA,NA,NA,some_college,big,NA,"English, Mandarin",female,7922,NA,You and your friend see the following:,2,1607629965760,NA,It is big relative to other,NA,0.75,NA,NA,NA,congruent,custom_main_text1,big,Your friend says: <br/><b>That sunflower is big.</b>
2340,What do you think your friend is saying it is big relative to?,NA,images/doberman.png,images/dog-parade-basic.png,35,NA,NA,critical,NA,no,2,dogs1,linda,NA,NA,yes,Your friend goes ahead of you. You see your friend in the distance:,NA,pred,service-animal,doberman,21,doberman,NA,NA,NA,some_college,big,NA,"English, Mandarin",female,14183,NA,You and your friend are at an animal training ground and you see the following:,3,1607629965760,NA,It is big relative to other,NA,0.75,NA,NA,NA,congruent,custom_main_text1,big,Your friend says: <br/><b>That service-animal is a big doberman.</b>
2340,What do you think your friend is saying it is small relative to?,NA,images/dandelion.png,images/flower-parade-basic.png,35,NA,NA,critical,NA,no,2,flowers,linda,NA,NA,yes,Your friend goes ahead of you. You see your friend in the distance:,NA,pred,gift,dandelion,21,dandelion,NA,NA,NA,some_college,small,NA,"English, Mandarin",female,10899,NA,You and your friend are at a garden store and you see the following:,4,1607629965760,NA,It is small relative to other,NA,0.75,NA,NA,NA,congruent,custom_main_text1,small,Your friend says: <br/><b>That gift is a small dandelion.</b>
2340,NA,skyscraper,NA,NA,35,warmup/stripmall2.png,skyscraper,NA,This is a,no,2,buildings,linda,NA,stripmall,yes,Please label the pictures below.,NA,NA,NA,NA,21,NA,NA,warmup/skyscraper2.png,buildings,some_college,NA,NA,"English, Mandarin",female,NA,buildings,NA,1,1607629965760,1,NA,This is a,0.75,These are both,stripmall,NA,NA,warmup2,NA,NA
2340,NA,Great Dane,NA,NA,35,warmup/pug2.png,great dane,NA,This is a,no,2,dogs2,linda,NA,pug,yes,Please label the pictures below.,NA,NA,NA,NA,21,NA,NA,warmup/great-dane2.png,dogs,some_college,NA,NA,"English, Mandarin",female,NA,dogs,NA,2,1607629965760,1,NA,This is a,0.75,These are both,pug,NA,NA,warmup2,NA,NA
2340,What do you think your friend is saying it is big relative to?,NA,images/great-dane_filler.png,images/dog-parade-basic2_filler.png,35,NA,NA,filler,NA,no,2,dogs2,linda,NA,NA,yes,Your friend goes ahead of you. You see your friend in the distance:,NA,pred,prize-winner,Great Dane,21,Great Danes,NA,NA,NA,some_college,big,NA,"English, Mandarin",female,18419,NA,You and your friend see the following:,1,1607629965760,NA,It is big relative to other,NA,0.75,NA,NA,NA,congruent,custom_main_text2,big,Your friend says: <br/><b>That's a big Great Dane.</b>
2340,What do you think your friend is saying it is small relative to?,NA,images/pug.png,images/dog-parade-basic2.png,35,NA,NA,critical,NA,no,2,dogs2,linda,NA,NA,yes,Your friend goes ahead of you. You see your friend in the distance:,NA,subj,prize-winner,pug,21,dogs,NA,NA,NA,some_college,small,NA,"English, Mandarin",female,9724,NA,You and your friend are at a pet show and you see the following:,2,1607629965760,NA,It is small relative to other,NA,0.75,NA,NA,NA,congruent,custom_main_text2,small,Your friend says: <br/><b>That small pug is a prize-winner.</b>
2340,What do you think your friend is saying it is big relative to?,NA,images/skyscraper-landmark.png,images/buildings-parade-basic.png,35,NA,NA,critical,NA,no,2,buildings,linda,NA,NA,yes,Your friend goes ahead of you. You see your friend in the distance:,NA,subj,landmark,skyscraper,21,buildings,NA,NA,NA,some_college,big,NA,"English, Mandarin",female,11183,NA,You visit your friend who lives in another city. You take a walk and you see the following:,3,1607629965760,NA,It is big relative to other,NA,0.75,NA,NA,NA,congruent,custom_main_text2,big,Your friend says: <br/><b>That big skyscraper is a landmark.</b>
2340,What do you think your friend is saying it is small relative to?,NA,images/stripmall-landmark-filler.png,images/buildings-parade-basic_filler.png,35,NA,NA,filler,NA,no,2,buildings,linda,NA,NA,yes,Your friend goes ahead of you. You see your friend in the distance:,NA,pred,landmark,stripmall,21,stripmalls,NA,NA,NA,some_college,small,NA,"English, Mandarin",female,9671,NA,You and your friend see the following:,4,1607629965760,NA,It is small relative to other,NA,0.75,NA,NA,NA,congruent,custom_main_text2,small,Your friend says: <br/><b>That's a small stripmall.</b>
2346,NA,tuna,NA,NA,35,warmup/clownfish2.png,tuna,NA,This is a,NA,1,fish,patricia,NA,clownfish,yes,Please label the pictures below.,NA,NA,NA,NA,34,NA,NA,warmup/tuna2.png,fish,graduated_college,NA,NA,english,female,NA,fish,NA,1,1607630164153,1,NA,This is a,3,These are both,clownfish,NA,NA,warmup1,NA,NA
2346,NA,great dane,NA,NA,35,warmup/pug2.png,great dane,NA,This is a,NA,1,dogs2,patricia,NA,pug,yes,Please label the pictures below.,NA,NA,NA,NA,34,NA,NA,warmup/great-dane2.png,dogs,graduated_college,NA,NA,english,female,NA,dogs,NA,2,1607630164153,1,NA,This is a,3,These are both,pug,NA,NA,warmup1,NA,NA
2346,<i>What do you think Speaker A meant? </i>,NA,NA,NA,35,NA,NA,NA,NA,NA,1,NA,patricia,1,NA,yes,NA,"<b> Speaker A: ""The Empire State Building is tall.""</b>",NA,NA,NA,34,buildings,NA,NA,NA,graduated_college,NA,comp_class_warmup,english,female,NA,NA,In the main trials you will be asked to rephrase something a person said. The utterance will contain a word that is <i>relative</i> and your task is to figure out what it is relative to. <br /> <br /> For example: <br />,1,1607630164153,1,The Empire State Building is tall relative to other,NA,3,NA,NA,"buildings, skyscrapers, houses, constructions (choose one)",NA,comp_class_warmup,NA,NA
2346,What do you think your friend is saying it is small relative to?,NA,images/pug_filler.png,images/dog-parade-basic2_filler.png,35,NA,NA,filler,NA,NA,1,dogs2,patricia,NA,NA,yes,Your friend goes ahead of you. You see your friend in the distance:,NA,pred,prize-winner,pug,34,other dogs,NA,NA,NA,graduated_college,small,NA,english,female,7768,NA,You and your friend see the following:,1,1607630164153,NA,It is small relative to other,NA,3,NA,NA,NA,congruent,custom_main_text1,small,Your friend says: <br/><b>That's a small pug.</b>
2346,What do you think your friend is saying it is small relative to?,NA,images/clownfish_net.png,images/fish-parade-basic.png,35,NA,NA,critical,NA,NA,1,fish,patricia,NA,NA,yes,Your friend goes ahead of you. You see your friend in the distance:,NA,subj,rescue,clownfish,34,fish,NA,NA,NA,graduated_college,small,NA,english,female,7755,NA,You visit your friend who works as a marine biologist and you see the following:,2,1607630164153,NA,It is small relative to other,NA,3,NA,NA,NA,congruent,custom_main_text1,small,Your friend says: <br/><b>That small clownfish is a rescue.</b>
2346,What do you think your friend is saying it is big relative to?,NA,images/tuna_filler.png,images/fish-parade-basic_filler.png,35,NA,NA,filler,NA,NA,1,fish,patricia,NA,NA,yes,Your friend goes ahead of you. You see your friend in the distance:,NA,pred,rescue,tuna,34,fish,NA,NA,NA,graduated_college,big,NA,english,female,116779,NA,You and your friend see the following:,3,1607630164153,NA,It is big relative to other,NA,3,NA,NA,NA,congruent,custom_main_text1,big,Your friend says: <br/><b>That's a big tuna.</b>
2346,What do you think your friend is saying it is big relative to?,NA,images/great-dane.png,images/dog-parade-basic2.png,35,NA,NA,critical,NA,NA,1,dogs2,patricia,NA,NA,yes,Your friend goes ahead of you. You see your friend in the distance:,NA,subj,prize-winner,Great Dane,34,dogs,NA,NA,NA,graduated_college,big,NA,english,female,15542,NA,You and your friend are at a pet show and you see the following:,4,1607630164153,NA,It is big relative to other,NA,3,NA,NA,NA,congruent,custom_main_text1,big,Your friend says: <br/><b>That big Great Dane is a prize-winner.</b>
2346,NA,chihuaha,NA,NA,35,warmup/doberman2.png,chihuahua,NA,This is a,NA,1,dogs1,patricia,NA,doberman,yes,Please label the pictures below.,NA,NA,NA,NA,34,NA,NA,warmup/chihuahua2.png,dogs,graduated_college,NA,NA,english,female,NA,dogs,NA,1,1607630164153,1,NA,This is a,3,These are both,doberman,NA,NA,warmup2,NA,NA
2346,NA,chihuahua,NA,NA,35,warmup/doberman2.png,chihuahua,NA,This is a,NA,1,dogs1,patricia,NA,doberman,yes,Please label the pictures below.,NA,NA,NA,NA,34,NA,NA,warmup/chihuahua2.png,dogs,graduated_college,NA,NA,english,female,NA,dogs,NA,1,1607630164153,2,NA,This is a,3,These are both,doberman,NA,NA,warmup2,NA,NA
2346,NA,dandelion,NA,NA,35,warmup/sunflower2.png,dandelion,NA,This is a,NA,1,flowers,patricia,NA,sunflower,yes,Please label the pictures below.,NA,NA,NA,NA,34,NA,NA,warmup/dandelion2.png,flowers,graduated_college,NA,NA,english,female,NA,flowers,NA,2,1607630164153,1,NA,This is a,3,These are both,sunflower,NA,NA,warmup2,NA,NA
2346,What do you think your friend is saying it is small relative to?,NA,images/chihuahua_filler.png,images/dog-parade-basic_filler.png,35,NA,NA,filler,NA,NA,1,dogs1,patricia,NA,NA,yes,Your friend goes ahead of you. You see your friend in the distance:,NA,subj,service-animal,chihuahua,34,dogs,NA,NA,NA,graduated_college,small,NA,english,female,10114,NA,You and your friend see the following:,1,1607630164153,NA,It is small relative to other,NA,3,NA,NA,NA,congruent,custom_main_text2,small,Your friend says: <br/><b>That chihuahua is small.</b>
2346,What do you think your friend is saying it is small relative to?,NA,images/dandelion.png,images/flower-parade-basic.png,35,NA,NA,critical,NA,NA,1,flowers,patricia,NA,NA,yes,Your friend goes ahead of you. You see your friend in the distance:,NA,pred,gift,dandelion,34,flowers,NA,NA,NA,graduated_college,small,NA,english,female,8554,NA,You and your friend are at a garden store and you see the following:,2,1607630164153,NA,It is small relative to other,NA,3,NA,NA,NA,congruent,custom_main_text2,small,Your friend says: <br/><b>That gift is a small dandelion.</b>
2346,What do you think your friend is saying it is big relative to?,NA,images/doberman.png,images/dog-parade-basic.png,35,NA,NA,critical,NA,NA,1,dogs1,patricia,NA,NA,yes,Your friend goes ahead of you. You see your friend in the distance:,NA,pred,service-animal,doberman,34,dogs,NA,NA,NA,graduated_college,big,NA,english,female,7254,NA,You and your friend are at an animal training ground and you see the following:,3,1607630164153,NA,It is big relative to other,NA,3,NA,NA,NA,congruent,custom_main_text2,big,Your friend says: <br/><b>That service-animal is a big doberman.</b>
2346,What do you think your friend is saying it is big relative to?,NA,images/sunflower_filler.png,images/flower-parade-basic_filler.png,35,NA,NA,filler,NA,NA,1,flowers,patricia,NA,NA,yes,Your friend goes ahead of you. You see your friend in the distance:,NA,subj,gift,sunflower,34,flowers,NA,NA,NA,graduated_college,big,NA,english,female,6017,NA,You and your friend see the following:,4,1607630164153,NA,It is big relative to other,NA,3,NA,NA,NA,congruent,custom_main_text2,big,Your friend says: <br/><b>That sunflower is big.</b>
2347,NA,doberman,NA,NA,35,warmup/chihuahua2.png,doberman,NA,This is a,n,1,dogs1,linda,NA,chihuahua,yes,Please label the pictures below.,NA,NA,NA,NA,50,NA,NA,warmup/doberman2.png,dogs,graduated_college,NA,NA,english,male,NA,dogs,NA,1,1607630293993,1,NA,This is a,2,These are both,chiwawa,NA,NA,warmup1,NA,NA
2347,NA,doberman,NA,NA,35,warmup/chihuahua2.png,doberman,NA,This is a,n,1,dogs1,linda,NA,chihuahua,yes,Please label the pictures below.,NA,NA,NA,NA,50,NA,NA,warmup/doberman2.png,dogs,graduated_college,NA,NA,english,male,NA,dogs,NA,1,1607630293993,2,NA,This is a,2,These are both,chiwawa,NA,NA,warmup1,NA,NA
2347,NA,doberman,NA,NA,35,warmup/chihuahua2.png,doberman,NA,This is a,n,1,dogs1,linda,NA,chihuahua,yes,Please label the pictures below.,NA,NA,NA,NA,50,NA,NA,warmup/doberman2.png,dogs,graduated_college,NA,NA,english,male,NA,dogs,NA,1,1607630293993,3,NA,This is a,2,These are both,chihuahua,NA,NA,warmup1,NA,NA
2347,NA,dandelion,NA,NA,35,warmup/sunflower2.png,dandelion,NA,This is a,n,1,flowers,linda,NA,sunflower,yes,Please label the pictures below.,NA,NA,NA,NA,50,NA,NA,warmup/dandelion2.png,flowers,graduated_college,NA,NA,english,male,NA,flowers,NA,2,1607630293993,1,NA,This is a,2,These are both,sunflower,NA,NA,warmup1,NA,NA
2347,<i>What do you think Speaker A meant? </i>,NA,NA,NA,35,NA,NA,NA,NA,n,1,NA,linda,1,NA,yes,NA,"<b> Speaker A: ""The Empire State Building is tall.""</b>",NA,NA,NA,50,buildings,NA,NA,NA,graduated_college,NA,comp_class_warmup,english,male,NA,NA,In the main trials you will be asked to rephrase something a person said. The utterance will contain a word that is <i>relative</i> and your task is to figure out what it is relative to. <br /> <br /> For example: <br />,1,1607630293993,1,The Empire State Building is tall relative to other,NA,2,NA,NA,"buildings, skyscrapers, houses, constructions (choose one)",NA,comp_class_warmup,NA,NA
2347,What do you think your friend is saying it is small relative to?,NA,images/dandelion_filler.png,images/flower-parade-basic_filler.png,35,NA,NA,filler,NA,n,1,flowers,linda,NA,NA,yes,Your friend goes ahead of you. You see your friend in the distance:,NA,subj,gift,dandelion,50,flowers,NA,NA,NA,graduated_college,small,NA,english,male,15027,NA,You and your friend see the following:,1,1607630293993,NA,It is small relative to other,NA,2,NA,NA,NA,congruent,custom_main_text1,small,Your friend says: <br/><b>That dandelion is small.</b>
2347,What do you think your friend is saying it is big relative to?,NA,images/doberman_filler.png,images/dog-parade-basic_filler.png,35,NA,NA,filler,NA,n,1,dogs1,linda,NA,NA,yes,Your friend goes ahead of you. You see your friend in the distance:,NA,subj,rescue,doberman,50,dogs,NA,NA,NA,graduated_college,big,NA,english,male,9081,NA,You and your friend see the following:,2,1607630293993,NA,It is big relative to other,NA,2,NA,NA,NA,congruent,custom_main_text1,big,Your friend says: <br/><b>That doberman is big.</b>
2347,What do you think your friend is saying it is small relative to?,NA,images/chihuahua-rescue.png,images/dog-parade-basic-rescue.png,35,NA,NA,critical,NA,n,1,dogs1,linda,NA,NA,yes,Your friend goes ahead of you. You see your friend in the distance:,NA,pred,rescue,chihuahua,50,dogs,NA,NA,NA,graduated_college,small,NA,english,male,13928,NA,You visit your friend who works at an animal shelter and you see the following:,3,1607630293993,NA,It is small relative to other,NA,2,NA,NA,NA,congruent,custom_main_text1,small,Your friend says: <br/><b>That rescue is a small chihuahua.</b>
2347,What do you think your friend is saying it is big relative to?,NA,images/sunflower.png,images/flower-parade-basic.png,35,NA,NA,critical,NA,n,1,flowers,linda,NA,NA,yes,Your friend goes ahead of you. You see your friend in the distance:,NA,pred,gift,sunflower,50,sunflowers,NA,NA,NA,graduated_college,big,NA,english,male,12981,NA,You and your friend are at a garden store and you see the following:,4,1607630293993,NA,It is big relative to other,NA,2,NA,NA,NA,congruent,custom_main_text1,big,Your friend says: <br/><b>That gift is a big sunflower.</b>
2347,NA,great dane,NA,NA,35,warmup/pug2.png,great dane,NA,This is a,n,1,dogs2,linda,NA,pug,yes,Please label the pictures below.,NA,NA,NA,NA,50,NA,NA,warmup/great-dane2.png,dogs,graduated_college,NA,NA,english,male,NA,dogs,NA,1,1607630293993,1,NA,This is a,2,These are both,pug,NA,NA,warmup2,NA,NA
2347,NA,skyscraper,NA,NA,35,warmup/stripmall2.png,skyscraper,NA,This is a,n,1,buildings,linda,NA,stripmall,yes,Please label the pictures below.,NA,NA,NA,NA,50,NA,NA,warmup/skyscraper2.png,buildings,graduated_college,NA,NA,english,male,NA,buildings,NA,2,1607630293993,1,NA,This is a,2,These are both,strip mall,NA,NA,warmup2,NA,NA
2347,NA,skyscraper,NA,NA,35,warmup/stripmall2.png,skyscraper,NA,This is a,n,1,buildings,linda,NA,stripmall,yes,Please label the pictures below.,NA,NA,NA,NA,50,NA,NA,warmup/skyscraper2.png,buildings,graduated_college,NA,NA,english,male,NA,buildings,NA,2,1607630293993,2,NA,This is a,2,These are both,stripmall,NA,NA,warmup2,NA,NA
2347,What do you think your friend is saying it is big relative to?,NA,images/skyscraper-landmark-filler.png,images/buildings-parade-basic_filler.png,35,NA,NA,filler,NA,n,1,buildings,linda,NA,NA,yes,Your friend goes ahead of you. You see your friend in the distance:,NA,pred,landmark,skyscraper,50,skyscrapers,NA,NA,NA,graduated_college,big,NA,english,male,14471,NA,You and your friend see the following:,1,1607630293993,NA,It is big relative to other,NA,2,NA,NA,NA,congruent,custom_main_text2,big,Your friend says: <br/><b>That's a big skyscraper.</b>
2347,What do you think your friend is saying it is small relative to?,NA,images/pug_filler.png,images/dog-parade-basic2_filler.png,35,NA,NA,filler,NA,n,1,dogs2,linda,NA,NA,yes,Your friend goes ahead of you. You see your friend in the distance:,NA,pred,prize-winner,pug,50,pugs,NA,NA,NA,graduated_college,small,NA,english,male,11815,NA,You and your friend see the following:,2,1607630293993,NA,It is small relative to other,NA,2,NA,NA,NA,congruent,custom_main_text2,small,Your friend says: <br/><b>That's a small pug.</b>
2347,What do you think your friend is saying it is big relative to?,NA,images/great-dane.png,images/dog-parade-basic2.png,35,NA,NA,critical,NA,n,1,dogs2,linda,NA,NA,yes,Your friend goes ahead of you. You see your friend in the distance:,NA,subj,prize-winner,Great Dane,50,dogs,NA,NA,NA,graduated_college,big,NA,english,male,10788,NA,You and your friend are at a pet show and you see the following:,3,1607630293993,NA,It is big relative to other,NA,2,NA,NA,NA,congruent,custom_main_text2,big,Your friend says: <br/><b>That big Great Dane is a prize-winner.</b>
2347,What do you think your friend is saying it is small relative to?,NA,images/stripmall-landmark.png,images/buildings-parade-basic.png,35,NA,NA,critical,NA,n,1,buildings,linda,NA,NA,yes,Your friend goes ahead of you. You see your friend in the distance:,NA,subj,landmark,stripmall,50,stripmalls,NA,NA,NA,graduated_college,small,NA,english,male,10839,NA,You visit your friend who lives in another city. You take a walk and you see the following:,4,1607630293993,NA,It is small relative to other,NA,2,NA,NA,NA,congruent,custom_main_text2,small,Your friend says: <br/><b>That small stripmall is a landmark.</b>
2351,NA,weed,NA,NA,35,warmup/sunflower2.png,dandelion,NA,This is a,no,2,flowers,elizabeth,NA,sunflower,NA,Please label the pictures below.,NA,NA,NA,NA,24,NA,NA,warmup/dandelion2.png,flowers,graduated_college,NA,NA,english,male,NA,flowers,NA,1,1607630347131,1,NA,This is a,0.75,These are both,sunflower,NA,NA,warmup1,NA,NA
2351,NA,dandelion,NA,NA,35,warmup/sunflower2.png,dandelion,NA,This is a,no,2,flowers,elizabeth,NA,sunflower,NA,Please label the pictures below.,NA,NA,NA,NA,24,NA,NA,warmup/dandelion2.png,flowers,graduated_college,NA,NA,english,male,NA,flowers,NA,1,1607630347131,2,NA,This is a,0.75,These are both,sunflower,NA,NA,warmup1,NA,NA
2351,NA,tuna,NA,NA,35,warmup/clownfish2.png,tuna,NA,This is a,no,2,fish,elizabeth,NA,clownfish,NA,Please label the pictures below.,NA,NA,NA,NA,24,NA,NA,warmup/tuna2.png,fish,graduated_college,NA,NA,english,male,NA,fish,NA,2,1607630347131,1,NA,This is a,0.75,These are both,clownfish,NA,NA,warmup1,NA,NA
2351,<i>What do you think Speaker A meant? </i>,NA,NA,NA,35,NA,NA,NA,NA,no,2,NA,elizabeth,1,NA,NA,NA,"<b> Speaker A: ""The Empire State Building is tall.""</b>",NA,NA,NA,24,buildings,NA,NA,NA,graduated_college,NA,comp_class_warmup,english,male,NA,NA,In the main trials you will be asked to rephrase something a person said. The utterance will contain a word that is <i>relative</i> and your task is to figure out what it is relative to. <br /> <br /> For example: <br />,1,1607630347131,1,The Empire State Building is tall relative to other,NA,0.75,NA,NA,"buildings, skyscrapers, houses, constructions (choose one)",NA,comp_class_warmup,NA,NA
2351,What do you think your friend is saying it is small relative to?,NA,images/dandelion_filler.png,images/flower-parade-basic_filler.png,35,NA,NA,filler,NA,no,2,flowers,elizabeth,NA,NA,NA,Your friend goes ahead of you. You see your friend in the distance:,NA,subj,landmark,dandelion,24,flowers,NA,NA,NA,graduated_college,small,NA,english,male,7315,NA,You and your friend see the following:,1,1607630347131,NA,It is small relative to other,NA,0.75,NA,NA,NA,congruent,custom_main_text1,small,Your friend says: <br/><b>That dandelion is small.</b>
2351,What do you think your friend is saying it is small relative to?,NA,images/clownfish_net.png,images/fish-parade-basic.png,35,NA,NA,critical,NA,no,2,fish,elizabeth,NA,NA,NA,Your friend goes ahead of you. You see your friend in the distance:,NA,pred,rescue,clownfish,24,fish,NA,NA,NA,graduated_college,small,NA,english,male,6538,NA,You visit your friend who works as a marine biologist and you see the following:,2,1607630347131,NA,It is small relative to other,NA,0.75,NA,NA,NA,congruent,custom_main_text1,small,Your friend says: <br/><b>That rescue is a small clownfish.</b>
2351,What do you think your friend is saying it is big relative to?,NA,images/tuna_filler.png,images/fish-parade-basic_filler.png,35,NA,NA,filler,NA,no,2,fish,elizabeth,NA,NA,NA,Your friend goes ahead of you. You see your friend in the distance:,NA,subj,rescue,tuna,24,fish,NA,NA,NA,graduated_college,big,NA,english,male,6371,NA,You and your friend see the following:,3,1607630347131,NA,It is big relative to other,NA,0.75,NA,NA,NA,congruent,custom_main_text1,big,Your friend says: <br/><b>That tuna is big.</b>
2351,What do you think your friend is saying it is big relative to?,NA,images/sunflower-landmark.png,images/flower-parade-basic-landmark.png,35,NA,NA,critical,NA,no,2,flowers,elizabeth,NA,NA,NA,Your friend goes ahead of you. You see your friend in the distance:,NA,pred,landmark,sunflower,24,flowers,NA,NA,NA,graduated_college,big,NA,english,male,11377,NA,You and your friend walk to a cabin you are renting for the weekend for the first time. You go along the path and you see the following:,4,1607630347131,NA,It is big relative to other,NA,0.75,NA,NA,NA,congruent,custom_main_text1,big,Your friend says: <br/><b>That landmark is a big sunflower.</b>
2351,NA,pug,NA,NA,35,warmup/great-dane2.png,pug,NA,This is a,no,2,dogs2,elizabeth,NA,great dane,NA,Please label the pictures below.,NA,NA,NA,NA,24,NA,NA,warmup/pug2.png,dogs,graduated_college,NA,NA,english,male,NA,dogs,NA,1,1607630347131,1,NA,This is a,0.75,These are both,great dane,NA,NA,warmup2,NA,NA
2351,NA,doberman,NA,NA,35,warmup/chihuahua2.png,doberman,NA,This is a,no,2,dogs1,elizabeth,NA,chihuahua,NA,Please label the pictures below.,NA,NA,NA,NA,24,NA,NA,warmup/doberman2.png,dogs,graduated_college,NA,NA,english,male,NA,dogs,NA,2,1607630347131,1,NA,This is a,0.75,These are both,chihuahua,NA,NA,warmup2,NA,NA
2351,What do you think your friend is saying it is big relative to?,NA,images/doberman_filler.png,images/dog-parade-basic_filler.png,35,NA,NA,filler,NA,no,2,dogs1,elizabeth,NA,NA,NA,Your friend goes ahead of you. You see your friend in the distance:,NA,pred,service-animal,doberman,24,dogs,NA,NA,NA,graduated_college,big,NA,english,male,5913,NA,You and your friend see the following:,1,1607630347131,NA,It is big relative to other,NA,0.75,NA,NA,NA,congruent,custom_main_text2,big,Your friend says: <br/><b>That's a big doberman.</b>
2351,What do you think your friend is saying it is small relative to?,NA,images/chihuahua.png,images/dog-parade-basic.png,35,NA,NA,critical,NA,no,2,dogs1,elizabeth,NA,NA,NA,Your friend goes ahead of you. You see your friend in the distance:,NA,subj,service-animal,chihuahua,24,dogs,NA,NA,NA,graduated_college,small,NA,english,male,19602,NA,You and your friend are at an animal training ground and you see the following:,2,1607630347131,NA,It is small relative to other,NA,0.75,NA,NA,NA,congruent,custom_main_text2,small,Your friend says: <br/><b>That small chihuahua is a service-animal.</b>
2351,What do you think your friend is saying it is big relative to?,NA,images/great-dane-gift.png,images/dog-parade-basic2-gift.png,35,NA,NA,critical,NA,no,2,dogs2,elizabeth,NA,NA,NA,Your friend goes ahead of you. You see your friend in the distance:,NA,subj,gift,Great Dane,24,dogs,NA,NA,NA,graduated_college,big,NA,english,male,5604,NA,You and your friend are at a pet store and you see the following:,3,1607630347131,NA,It is big relative to other,NA,0.75,NA,NA,NA,congruent,custom_main_text2,big,Your friend says: <br/><b>That big Great Dane is a gift.</b>
2351,What do you think your friend is saying it is small relative to?,NA,images/pug_filler.png,images/dog-parade-basic2_filler.png,35,NA,NA,filler,NA,no,2,dogs2,elizabeth,NA,NA,NA,Your friend goes ahead of you. You see your friend in the distance:,NA,pred,gift,pug,24,pugs,NA,NA,NA,graduated_college,small,NA,english,male,5089,NA,You and your friend see the following:,4,1607630347131,NA,It is small relative to other,NA,0.75,NA,NA,NA,congruent,custom_main_text2,small,Your friend says: <br/><b>That's a small pug.</b>
2352,NA,chihuahua,NA,NA,35,warmup/doberman2.png,chihuahua,NA,This is a,No,1,dogs1,susan,NA,doberman,yes,Please label the pictures below.,NA,NA,NA,NA,27,NA,NA,warmup/chihuahua2.png,dogs,graduated_college,NA,NA,English,male,NA,dogs,NA,1,1607630624539,1,NA,This is a,1.5,These are both,doberman,NA,NA,warmup1,NA,NA
2352,NA,skyscraper,NA,NA,35,warmup/stripmall2.png,skyscraper,NA,This is a,No,1,buildings,susan,NA,stripmall,yes,Please label the pictures below.,NA,NA,NA,NA,27,NA,NA,warmup/skyscraper2.png,buildings,graduated_college,NA,NA,English,male,NA,buildings,NA,2,1607630624539,1,NA,This is a,1.5,These are both,stripmall,NA,NA,warmup1,NA,NA
2352,<i>What do you think Speaker A meant? </i>,NA,NA,NA,35,NA,NA,NA,NA,No,1,NA,susan,1,NA,yes,NA,"<b> Speaker A: ""The Empire State Building is tall.""</b>",NA,NA,NA,27,buildings,NA,NA,NA,graduated_college,NA,comp_class_warmup,English,male,NA,NA,In the main trials you will be asked to rephrase something a person said. The utterance will contain a word that is <i>relative</i> and your task is to figure out what it is relative to. <br /> <br /> For example: <br />,1,1607630624539,1,The Empire State Building is tall relative to other,NA,1.5,NA,NA,"buildings, skyscrapers, houses, constructions (choose one)",NA,comp_class_warmup,NA,NA
2352,What do you think your friend is saying it is big relative to?,NA,images/skyscraper-landmark-filler.png,images/buildings-parade-basic_filler.png,35,NA,NA,filler,NA,No,1,buildings,susan,NA,NA,yes,Your friend goes ahead of you. You see your friend in the distance:,NA,subj,landmark,skyscraper,27,buildings,NA,NA,NA,graduated_college,big,NA,English,male,13408,NA,You and your friend see the following:,1,1607630624539,NA,It is big relative to other,NA,1.5,NA,NA,NA,congruent,custom_main_text1,big,Your friend says: <br/><b>That skyscraper is big.</b>
2352,What do you think your friend is saying it is small relative to?,NA,images/chihuahua-rescue.png,images/dog-parade-basic-rescue.png,35,NA,NA,critical,NA,No,1,dogs1,susan,NA,NA,yes,Your friend goes ahead of you. You see your friend in the distance:,NA,subj,rescue,chihuahua,27,dogs,NA,NA,NA,graduated_college,small,NA,English,male,10539,NA,You visit your friend who works at an animal shelter and you see the following:,2,1607630624539,NA,It is small relative to other,NA,1.5,NA,NA,NA,congruent,custom_main_text1,small,Your friend says: <br/><b>That small chihuahua is a rescue.</b>
2352,What do you think your friend is saying it is small relative to?,NA,images/stripmall-landmark.png,images/buildings-parade-basic.png,35,NA,NA,critical,NA,No,1,buildings,susan,NA,NA,yes,Your friend goes ahead of you. You see your friend in the distance:,NA,pred,landmark,stripmall,27,landmarks,NA,NA,NA,graduated_college,small,NA,English,male,10084,NA,You visit your friend who lives in another city. You take a walk and you see the following:,3,1607630624539,NA,It is small relative to other,NA,1.5,NA,NA,NA,congruent,custom_main_text1,small,Your friend says: <br/><b>That landmark is a small stripmall.</b>
2352,What do you think your friend is saying it is big relative to?,NA,images/doberman_filler.png,images/dog-parade-basic_filler.png,35,NA,NA,filler,NA,No,1,dogs1,susan,NA,NA,yes,Your friend goes ahead of you. You see your friend in the distance:,NA,pred,rescue,doberman,27,dogs,NA,NA,NA,graduated_college,big,NA,English,male,5658,NA,You and your friend see the following:,4,1607630624539,NA,It is big relative to other,NA,1.5,NA,NA,NA,congruent,custom_main_text1,big,Your friend says: <br/><b>That's a big doberman.</b>
2352,NA,sunflower,NA,NA,35,warmup/dandelion2.png,sunflower,NA,This is a,No,1,flowers,susan,NA,dandelion,yes,Please label the pictures below.,NA,NA,NA,NA,27,NA,NA,warmup/sunflower2.png,plants,graduated_college,NA,NA,English,male,NA,flowers,NA,1,1607630624539,1,NA,This is a,1.5,These are both,dandelion,NA,NA,warmup2,NA,NA
2352,NA,sunflower,NA,NA,35,warmup/dandelion2.png,sunflower,NA,This is a,No,1,flowers,susan,NA,dandelion,yes,Please label the pictures below.,NA,NA,NA,NA,27,NA,NA,warmup/sunflower2.png,flowers,graduated_college,NA,NA,English,male,NA,flowers,NA,1,1607630624539,2,NA,This is a,1.5,These are both,dandelion,NA,NA,warmup2,NA,NA
2352,NA,great dane,NA,NA,35,warmup/pug2.png,great dane,NA,This is a,No,1,dogs2,susan,NA,pug,yes,Please label the pictures below.,NA,NA,NA,NA,27,NA,NA,warmup/great-dane2.png,dogs,graduated_college,NA,NA,English,male,NA,dogs,NA,2,1607630624539,1,NA,This is a,1.5,These are both,pug,NA,NA,warmup2,NA,NA
2352,What do you think your friend is saying it is small relative to?,NA,images/dandelion_filler.png,images/flower-parade-basic_filler.png,35,NA,NA,filler,NA,No,1,flowers,susan,NA,NA,yes,Your friend goes ahead of you. You see your friend in the distance:,NA,pred,gift,dandelion,27,flowers,NA,NA,NA,graduated_college,small,NA,English,male,5221,NA,You and your friend see the following:,1,1607630624539,NA,It is small relative to other,NA,1.5,NA,NA,NA,congruent,custom_main_text2,small,Your friend says: <br/><b>That's a small dandelion.</b>
2352,What do you think your friend is saying it is big relative to?,NA,images/great-dane.png,images/dog-parade-basic2.png,35,NA,NA,critical,NA,No,1,dogs2,susan,NA,NA,yes,Your friend goes ahead of you. You see your friend in the distance:,NA,pred,prize-winner,Great Dane,27,dogs,NA,NA,NA,graduated_college,big,NA,English,male,3594,NA,You and your friend are at a pet show and you see the following:,2,1607630624539,NA,It is big relative to other,NA,1.5,NA,NA,NA,congruent,custom_main_text2,big,Your friend says: <br/><b>That prize-winner is a big Great Dane.</b>
2352,What do you think your friend is saying it is big relative to?,NA,images/sunflower.png,images/flower-parade-basic.png,35,NA,NA,critical,NA,No,1,flowers,susan,NA,NA,yes,Your friend goes ahead of you. You see your friend in the distance:,NA,subj,gift,sunflower,27,flowers,NA,NA,NA,graduated_college,big,NA,English,male,6838,NA,You and your friend are at a garden store and you see the following:,3,1607630624539,NA,It is big relative to other,NA,1.5,NA,NA,NA,congruent,custom_main_text2,big,Your friend says: <br/><b>That big sunflower is a gift.</b>
2352,What do you think your friend is saying it is small relative to?,NA,images/pug_filler.png,images/dog-parade-basic2_filler.png,35,NA,NA,filler,NA,No,1,dogs2,susan,NA,NA,yes,Your friend goes ahead of you. You see your friend in the distance:,NA,subj,prize-winner,pug,27,dogs,NA,NA,NA,graduated_college,small,NA,English,male,5369,NA,You and your friend see the following:,4,1607630624539,NA,It is small relative to other,NA,1.5,NA,NA,NA,congruent,custom_main_text2,small,Your friend says: <br/><b>That pug is small.</b>
2356,NA,dandelion,NA,NA,35,warmup/sunflower2.png,dandelion,NA,This is a,no,1,flowers,Linda,NA,sunflower,yes,Please label the pictures below.,NA,NA,NA,NA,32,NA,NA,warmup/dandelion2.png,flowers,graduated_college,NA,NA,English,female,NA,flowers,NA,1,1607630579402,1,NA,This is a,1.5,These are both,sunflower,NA,NA,warmup1,NA,NA
2356,NA,stripmall,NA,NA,35,warmup/skyscraper2.png,stripmall,NA,This is a,no,1,buildings,Linda,NA,skyscraper,yes,Please label the pictures below.,NA,NA,NA,NA,32,NA,NA,warmup/stripmall2.png,buildings,graduated_college,NA,NA,English,female,NA,buildings,NA,2,1607630579402,1,NA,This is a,1.5,These are both,skyscraper,NA,NA,warmup1,NA,NA
2356,<i>What do you think Speaker A meant? </i>,NA,NA,NA,35,NA,NA,NA,NA,no,1,NA,Linda,1,NA,yes,NA,"<b> Speaker A: ""The Empire State Building is tall.""</b>",NA,NA,NA,32,landmarks,NA,NA,NA,graduated_college,NA,comp_class_warmup,English,female,NA,NA,In the main trials you will be asked to rephrase something a person said. The utterance will contain a word that is <i>relative</i> and your task is to figure out what it is relative to. <br /> <br /> For example: <br />,1,1607630579402,1,The Empire State Building is tall relative to other,NA,1.5,NA,NA,"buildings, skyscrapers, houses, constructions (choose one)",NA,comp_class_warmup,NA,NA
2356,<i>What do you think Speaker A meant? </i>,NA,NA,NA,35,NA,NA,NA,NA,no,1,NA,Linda,1,NA,yes,NA,"<b> Speaker A: ""The Empire State Building is tall.""</b>",NA,NA,NA,32,buildings,NA,NA,NA,graduated_college,NA,comp_class_warmup,English,female,NA,NA,In the main trials you will be asked to rephrase something a person said. The utterance will contain a word that is <i>relative</i> and your task is to figure out what it is relative to. <br /> <br /> For example: <br />,1,1607630579402,2,The Empire State Building is tall relative to other,NA,1.5,NA,NA,"buildings, skyscrapers, houses, constructions (choose one)",NA,comp_class_warmup,NA,NA
2356,What do you think your friend is saying it is big relative to?,NA,images/skyscraper-landmark-filler.png,images/buildings-parade-basic_filler.png,35,NA,NA,filler,NA,no,1,buildings,Linda,NA,NA,yes,Your friend goes ahead of you. You see your friend in the distance:,NA,subj,landmark,skyscraper,32,buildings,NA,NA,NA,graduated_college,big,NA,English,female,8367,NA,You and your friend see the following:,1,1607630579402,NA,It is big relative to other,NA,1.5,NA,NA,NA,congruent,custom_main_text1,big,Your friend says: <br/><b>That skyscraper is big.</b>
2356,What do you think your friend is saying it is big relative to?,NA,images/sunflower.png,images/flower-parade-basic.png,35,NA,NA,critical,NA,no,1,flowers,Linda,NA,NA,yes,Your friend goes ahead of you. You see your friend in the distance:,NA,subj,gift,sunflower,32,sunflowers,NA,NA,NA,graduated_college,big,NA,English,female,17611,NA,You and your friend are at a garden store and you see the following:,2,1607630579402,NA,It is big relative to other,NA,1.5,NA,NA,NA,congruent,custom_main_text1,big,Your friend says: <br/><b>That big sunflower is a gift.</b>
2356,What do you think your friend is saying it is small relative to?,NA,images/stripmall-landmark.png,images/buildings-parade-basic.png,35,NA,NA,critical,NA,no,1,buildings,Linda,NA,NA,yes,Your friend goes ahead of you. You see your friend in the distance:,NA,pred,landmark,stripmall,32,strip malls,NA,NA,NA,graduated_college,small,NA,English,female,51608,NA,You visit your friend who lives in another city. You take a walk and you see the following:,3,1607630579402,NA,It is small relative to other,NA,1.5,NA,NA,NA,congruent,custom_main_text1,small,Your friend says: <br/><b>That landmark is a small stripmall.</b>
2356,What do you think your friend is saying it is small relative to?,NA,images/dandelion_filler.png,images/flower-parade-basic_filler.png,35,NA,NA,filler,NA,no,1,flowers,Linda,NA,NA,yes,Your friend goes ahead of you. You see your friend in the distance:,NA,pred,gift,dandelion,32,dandelions,NA,NA,NA,graduated_college,small,NA,English,female,8281,NA,You and your friend see the following:,4,1607630579402,NA,It is small relative to other,NA,1.5,NA,NA,NA,congruent,custom_main_text1,small,Your friend says: <br/><b>That's a small dandelion.</b>
2356,NA,chihuahua,NA,NA,35,warmup/doberman2.png,chihuahua,NA,This is a,no,1,dogs1,Linda,NA,doberman,yes,Please label the pictures below.,NA,NA,NA,NA,32,NA,NA,warmup/chihuahua2.png,dogs,graduated_college,NA,NA,English,female,NA,dogs,NA,1,1607630579402,1,NA,This is a,1.5,These are both,doberman,NA,NA,warmup2,NA,NA
2356,NA,pug,NA,NA,35,warmup/great-dane2.png,pug,NA,This is a,no,1,dogs2,Linda,NA,great dane,yes,Please label the pictures below.,NA,NA,NA,NA,32,NA,NA,warmup/pug2.png,dogs,graduated_college,NA,NA,English,female,NA,dogs,NA,2,1607630579402,1,NA,This is a,1.5,These are both,Great Dane,NA,NA,warmup2,NA,NA
2356,What do you think your friend is saying it is big relative to?,NA,images/great-dane_filler.png,images/dog-parade-basic2_filler.png,35,NA,NA,filler,NA,no,1,dogs2,Linda,NA,NA,yes,Your friend goes ahead of you. You see your friend in the distance:,NA,pred,prize-winner,Great Dane,32,Great Danes,NA,NA,NA,graduated_college,big,NA,English,female,23257,NA,You and your friend see the following:,1,1607630579402,NA,It is big relative to other,NA,1.5,NA,NA,NA,congruent,custom_main_text2,big,Your friend says: <br/><b>That's a big Great Dane.</b>
2356,What do you think your friend is saying it is small relative to?,NA,images/pug.png,images/dog-parade-basic2.png,35,NA,NA,critical,NA,no,1,dogs2,Linda,NA,NA,yes,Your friend goes ahead of you. You see your friend in the distance:,NA,subj,prize-winner,pug,32,pugs,NA,NA,NA,graduated_college,small,NA,English,female,13048,NA,You and your friend are at a pet show and you see the following:,2,1607630579402,NA,It is small relative to other,NA,1.5,NA,NA,NA,congruent,custom_main_text2,small,Your friend says: <br/><b>That small pug is a prize-winner.</b>
2356,What do you think your friend is saying it is small relative to?,NA,images/chihuahua_filler.png,images/dog-parade-basic_filler.png,35,NA,NA,filler,NA,no,1,dogs1,Linda,NA,NA,yes,Your friend goes ahead of you. You see your friend in the distance:,NA,subj,service-animal,chihuahua,32,Chihuahuas,NA,NA,NA,graduated_college,small,NA,English,female,18927,NA,You and your friend see the following:,3,1607630579402,NA,It is small relative to other,NA,1.5,NA,NA,NA,congruent,custom_main_text2,small,Your friend says: <br/><b>That chihuahua is small.</b>
2356,What do you think your friend is saying it is big relative to?,NA,images/doberman.png,images/dog-parade-basic.png,35,NA,NA,critical,NA,no,1,dogs1,Linda,NA,NA,yes,Your friend goes ahead of you. You see your friend in the distance:,NA,pred,service-animal,doberman,32,dobermans,NA,NA,NA,graduated_college,big,NA,English,female,29247,NA,You and your friend are at an animal training ground and you see the following:,4,1607630579402,NA,It is big relative to other,NA,1.5,NA,NA,NA,congruent,custom_main_text2,big,Your friend says: <br/><b>That service-animal is a big doberman.</b>
2359,NA,redwood,NA,NA,35,warmup/bonsai2.png,redwood or sequoia (choose one),NA,This is a,none,1,trees,sarah,NA,bonsai,yes,Please label the pictures below.,NA,NA,NA,NA,21,NA,none,warmup/redwood2.png,trees,some_college,NA,NA,English,female,NA,trees,NA,1,1607630591107,1,NA,This is a,0.5,These are both,bonsai,NA,NA,warmup1,NA,NA
2359,NA,sunflower,NA,NA,35,warmup/dandelion2.png,sunflower,NA,This is a,none,1,flowers,sarah,NA,dandelion,yes,Please label the pictures below.,NA,NA,NA,NA,21,NA,none,warmup/sunflower2.png,flowers,some_college,NA,NA,English,female,NA,flowers,NA,2,1607630591107,1,NA,This is a,0.5,These are both,dandelion,NA,NA,warmup1,NA,NA
2359,<i>What do you think Speaker A meant? </i>,NA,NA,NA,35,NA,NA,NA,NA,none,1,NA,sarah,1,NA,yes,NA,"<b> Speaker A: ""The Empire State Building is tall.""</b>",NA,NA,NA,21,buildings,none,NA,NA,some_college,NA,comp_class_warmup,English,female,NA,NA,In the main trials you will be asked to rephrase something a person said. The utterance will contain a word that is <i>relative</i> and your task is to figure out what it is relative to. <br /> <br /> For example: <br />,1,1607630591107,1,The Empire State Building is tall relative to other,NA,0.5,NA,NA,"buildings, skyscrapers, houses, constructions (choose one)",NA,comp_class_warmup,NA,NA
2359,What do you think your friend is saying it is big relative to?,NA,images/sunflower_filler.png,images/flower-parade-basic_filler.png,35,NA,NA,filler,NA,none,1,flowers,sarah,NA,NA,yes,Your friend goes ahead of you. You see your friend in the distance:,NA,pred,gift,sunflower,21,flowers,none,NA,NA,some_college,big,NA,English,female,19646,NA,You and your friend see the following:,1,1607630591107,NA,It is big relative to other,NA,0.5,NA,NA,NA,congruent,custom_main_text1,big,Your friend says: <br/><b>That's a big sunflower.</b>
2359,What do you think your friend is saying it is big relative to?,NA,images/redwood_sign.png,images/tree-parade-basic.png,35,NA,NA,critical,NA,none,1,trees,sarah,NA,NA,yes,Your friend goes ahead of you. You see your friend in the distance:,NA,pred,landmark,redwood,21,trees,none,NA,NA,some_college,big,NA,English,female,29436,NA,You and your friend walk to your friend's cabin in a park for the first time. You want to memorize the path and you see the following:,2,1607630591107,NA,It is big relative to other,NA,0.5,NA,NA,NA,congruent,custom_main_text1,big,Your friend says: <br/><b>That landmark is a big redwood.</b>
2359,What do you think your friend is saying it is small relative to?,NA,images/bonsai_filler.png,images/tree-parade-basic_filler.png,35,NA,NA,filler,NA,none,1,trees,sarah,NA,NA,yes,Your friend goes ahead of you. You see your friend in the distance:,NA,subj,landmark,bonsai,21,trees,none,NA,NA,some_college,small,NA,English,female,10483,NA,You and your friend see the following:,3,1607630591107,NA,It is small relative to other,NA,0.5,NA,NA,NA,congruent,custom_main_text1,small,Your friend says: <br/><b>That bonsai is small.</b>
2359,What do you think your friend is saying it is small relative to?,NA,images/dandelion.png,images/flower-parade-basic.png,35,NA,NA,critical,NA,none,1,flowers,sarah,NA,NA,yes,Your friend goes ahead of you. You see your friend in the distance:,NA,subj,gift,dandelion,21,flowers,none,NA,NA,some_college,small,NA,English,female,14532,NA,You and your friend are at a garden store and you see the following:,4,1607630591107,NA,It is small relative to other,NA,0.5,NA,NA,NA,congruent,custom_main_text1,small,Your friend says: <br/><b>That small dandelion is a gift.</b>
2359,NA,hummingbird,NA,NA,35,warmup/eagle2.png,hummingbird,NA,This is a,none,1,birds,sarah,NA,eagle,yes,Please label the pictures below.,NA,NA,NA,NA,21,NA,none,warmup/hummingbird2.png,birds,some_college,NA,NA,English,female,NA,birds,NA,1,1607630591107,1,NA,This is an,0.5,These are both,eagle,NA,NA,warmup2,NA,NA
2359,NA,pug,NA,NA,35,warmup/great-dane2.png,pug,NA,This is a,none,1,dogs2,sarah,NA,great dane,yes,Please label the pictures below.,NA,NA,NA,NA,21,NA,none,warmup/pug2.png,dogs,some_college,NA,NA,English,female,NA,dogs,NA,2,1607630591107,1,NA,This is a,0.5,These are both,great dane,NA,NA,warmup2,NA,NA
2359,What do you think your friend is saying it is big relative to?,NA,images/eagle_filler.png,images/bird-parade-basic_filler.png,35,NA,NA,filler,NA,none,1,birds,sarah,NA,NA,yes,Your friend goes ahead of you. You see your friend in the distance:,NA,subj,rescue,eagle,21,birds,none,NA,NA,some_college,big,NA,English,female,10875,NA,You and your friend see the following:,1,1607630591107,NA,It is big relative to other,NA,0.5,NA,NA,NA,congruent,custom_main_text2,big,Your friend says: <br/><b>That eagle is big.</b>
2359,What do you think your friend is saying it is small relative to?,NA,images/hummingbird.png,images/bird-parade-basic.png,35,NA,NA,critical,NA,none,1,birds,sarah,NA,NA,yes,Your friend goes ahead of you. You see your friend in the distance:,NA,pred,rescue,hummingbird,21,birds,none,NA,NA,some_college,small,NA,English,female,14884,NA,You visit your friend who works at an animal shelter and you see the following:,2,1607630591107,NA,It is small relative to other,NA,0.5,NA,NA,NA,congruent,custom_main_text2,small,Your friend says: <br/><b>That rescue is a small hummingbird.</b>
2359,What do you think your friend is saying it is big relative to?,NA,images/great-dane.png,images/dog-parade-basic2.png,35,NA,NA,critical,NA,none,1,dogs2,sarah,NA,NA,yes,Your friend goes ahead of you. You see your friend in the distance:,NA,subj,prize-winner,Great Dane,21,dogs,none,NA,NA,some_college,big,NA,English,female,49043,NA,You and your friend are at a pet show and you see the following:,3,1607630591107,NA,It is big relative to other,NA,0.5,NA,NA,NA,congruent,custom_main_text2,big,Your friend says: <br/><b>That big Great Dane is a prize-winner.</b>
2359,What do you think your friend is saying it is small relative to?,NA,images/pug_filler.png,images/dog-parade-basic2_filler.png,35,NA,NA,filler,NA,none,1,dogs2,sarah,NA,NA,yes,Your friend goes ahead of you. You see your friend in the distance:,NA,pred,prize-winner,pug,21,dogs,none,NA,NA,some_college,small,NA,English,female,7404,NA,You and your friend see the following:,4,1607630591107,NA,It is small relative to other,NA,0.5,NA,NA,NA,congruent,custom_main_text2,small,Your friend says: <br/><b>That's a small pug.</b>
2360,NA,clownfish,NA,NA,35,warmup/tuna2.png,clownfish,NA,This is a,none,NA,fish,sarah,NA,tuna,yes,Please label the pictures below.,NA,NA,NA,NA,41,NA,Easy interface to work with,warmup/clownfish2.png,fish,some_college,NA,NA,English,female,NA,fish,NA,1,1607630661890,1,NA,This is a,1.5,These are both,tuna,NA,NA,warmup1,NA,NA
2360,NA,great dane,NA,NA,35,warmup/pug2.png,great dane,NA,This is a,none,NA,dogs2,sarah,NA,pug,yes,Please label the pictures below.,NA,NA,NA,NA,41,NA,Easy interface to work with,warmup/great-dane2.png,dogs,some_college,NA,NA,English,female,NA,dogs,NA,2,1607630661890,1,NA,This is a,1.5,These are both,pug,NA,NA,warmup1,NA,NA
2360,<i>What do you think Speaker A meant? </i>,NA,NA,NA,35,NA,NA,NA,NA,none,NA,NA,sarah,1,NA,yes,NA,"<b> Speaker A: ""The Empire State Building is tall.""</b>",NA,NA,NA,41,buildings,Easy interface to work with,NA,NA,some_college,NA,comp_class_warmup,English,female,NA,NA,In the main trials you will be asked to rephrase something a person said. The utterance will contain a word that is <i>relative</i> and your task is to figure out what it is relative to. <br /> <br /> For example: <br />,1,1607630661890,1,The Empire State Building is tall relative to other,NA,1.5,NA,NA,"buildings, skyscrapers, houses, constructions (choose one)",NA,comp_class_warmup,NA,NA
2360,What do you think your friend is saying it is small relative to?,NA,images/clownfish_filler.png,images/fish-parade-basic_filler.png,35,NA,NA,filler,NA,none,NA,fish,sarah,NA,NA,yes,Your friend goes ahead of you. You see your friend in the distance:,NA,subj,rescue,clownfish,41,fish,Easy interface to work with,NA,NA,some_college,small,NA,English,female,12436,NA,You and your friend see the following:,1,1607630661890,NA,It is small relative to other,NA,1.5,NA,NA,NA,congruent,custom_main_text1,small,Your friend says: <br/><b>That clownfish is small.</b>
2360,What do you think your friend is saying it is big relative to?,NA,images/tuna_net.png,images/fish-parade-basic.png,35,NA,NA,critical,NA,none,NA,fish,sarah,NA,NA,yes,Your friend goes ahead of you. You see your friend in the distance:,NA,pred,rescue,tuna,41,fish,Easy interface to work with,NA,NA,some_college,big,NA,English,female,22231,NA,You visit your friend who works as a marine biologist and you see the following:,2,1607630661890,NA,It is big relative to other,NA,1.5,NA,NA,NA,congruent,custom_main_text1,big,Your friend says: <br/><b>That rescue is a big tuna.</b>
2360,What do you think your friend is saying it is small relative to?,NA,images/pug-gift.png,images/dog-parade-basic2-gift.png,35,NA,NA,critical,NA,none,NA,dogs2,sarah,NA,NA,yes,Your friend goes ahead of you. You see your friend in the distance:,NA,pred,gift,pug,41,dog gifts,Easy interface to work with,NA,NA,some_college,small,NA,English,female,16213,NA,You and your friend are at a pet store and you see the following:,3,1607630661890,NA,It is small relative to other,NA,1.5,NA,NA,NA,congruent,custom_main_text1,small,Your friend says: <br/><b>That gift is a small pug.</b>
2360,What do you think your friend is saying it is big relative to?,NA,images/great-dane_filler.png,images/dog-parade-basic2_filler.png,35,NA,NA,filler,NA,none,NA,dogs2,sarah,NA,NA,yes,Your friend goes ahead of you. You see your friend in the distance:,NA,subj,gift,Great Dane,41,dogs,Easy interface to work with,NA,NA,some_college,big,NA,English,female,9154,NA,You and your friend see the following:,4,1607630661890,NA,It is big relative to other,NA,1.5,NA,NA,NA,congruent,custom_main_text1,big,Your friend says: <br/><b>That Great Dane is big.</b>
2360,NA,dandelion,NA,NA,35,warmup/sunflower2.png,dandelion,NA,This is a,none,NA,flowers,sarah,NA,sunflower,yes,Please label the pictures below.,NA,NA,NA,NA,41,NA,Easy interface to work with,warmup/dandelion2.png,flowers,some_college,NA,NA,English,female,NA,flowers,NA,1,1607630661890,1,NA,This is a,1.5,These are both,sunflower,NA,NA,warmup2,NA,NA
2360,NA,chihuahua,NA,NA,35,warmup/doberman2.png,chihuahua,NA,This is a,none,NA,dogs1,sarah,NA,doberman,yes,Please label the pictures below.,NA,NA,NA,NA,41,NA,Easy interface to work with,warmup/chihuahua2.png,dogs,some_college,NA,NA,English,female,NA,dogs,NA,2,1607630661890,1,NA,This is a,1.5,These are both,doberman,NA,NA,warmup2,NA,NA
2360,What do you think your friend is saying it is small relative to?,NA,images/dandelion_filler.png,images/flower-parade-basic_filler.png,35,NA,NA,filler,NA,none,NA,flowers,sarah,NA,NA,yes,Your friend goes ahead of you. You see your friend in the distance:,NA,pred,landmark,dandelion,41,flowers in the distance,Easy interface to work with,NA,NA,some_college,small,NA,English,female,16071,NA,You and your friend see the following:,1,1607630661890,NA,It is small relative to other,NA,1.5,NA,NA,NA,congruent,custom_main_text2,small,Your friend says: <br/><b>That's a small dandelion.</b>
2360,What do you think your friend is saying it is big relative to?,NA,images/sunflower-landmark.png,images/flower-parade-basic-landmark.png,35,NA,NA,critical,NA,none,NA,flowers,sarah,NA,NA,yes,Your friend goes ahead of you. You see your friend in the distance:,NA,subj,landmark,sunflower,41,flowers and landmark,Easy interface to work with,NA,NA,some_college,big,NA,English,female,18419,NA,You and your friend walk to a cabin you are renting for the weekend for the first time. You go along the path and you see the following:,2,1607630661890,NA,It is big relative to other,NA,1.5,NA,NA,NA,congruent,custom_main_text2,big,Your friend says: <br/><b>That big sunflower is a landmark.</b>
2360,What do you think your friend is saying it is small relative to?,NA,images/chihuahua.png,images/dog-parade-basic.png,35,NA,NA,critical,NA,none,NA,dogs1,sarah,NA,NA,yes,Your friend goes ahead of you. You see your friend in the distance:,NA,subj,service-animal,chihuahua,41,to the doberman service-animal,Easy interface to work with,NA,NA,some_college,small,NA,English,female,13526,NA,You and your friend are at an animal training ground and you see the following:,3,1607630661890,NA,It is small relative to other,NA,1.5,NA,NA,NA,congruent,custom_main_text2,small,Your friend says: <br/><b>That small chihuahua is a service-animal.</b>
2360,What do you think your friend is saying it is big relative to?,NA,images/doberman_filler.png,images/dog-parade-basic_filler.png,35,NA,NA,filler,NA,none,NA,dogs1,sarah,NA,NA,yes,Your friend goes ahead of you. You see your friend in the distance:,NA,pred,service-animal,doberman,41,dogs,Easy interface to work with,NA,NA,some_college,big,NA,English,female,11735,NA,You and your friend see the following:,4,1607630661890,NA,It is big relative to other,NA,1.5,NA,NA,NA,congruent,custom_main_text2,big,Your friend says: <br/><b>That's a big doberman.</b>
2366,NA,Tuna,NA,NA,35,warmup/clownfish2.png,tuna,NA,This is a,no. It was a good experiement. Good luck with your research.,2,fish,jessica,NA,clownfish,yes,Please label the pictures below.,NA,NA,NA,NA,52,NA,Good luck with your research.,warmup/tuna2.png,fish,graduated_college,NA,NA,English,female,NA,fish,NA,1,1607630401294,1,NA,This is a,1.25,These are both,clown fish,NA,NA,warmup1,NA,NA
2366,NA,Tuna,NA,NA,35,warmup/clownfish2.png,tuna,NA,This is a,no. It was a good experiement. Good luck with your research.,2,fish,jessica,NA,clownfish,yes,Please label the pictures below.,NA,NA,NA,NA,52,NA,Good luck with your research.,warmup/tuna2.png,fish,graduated_college,NA,NA,English,female,NA,fish,NA,1,1607630401294,2,NA,This is a,1.25,These are both,clown fish,NA,NA,warmup1,NA,NA
