submission_id,question,response1,target_picture,context_picture,experiment_id,picture2,correct1,question1,problems,enjoyment,item,botresponse,trials,correct2,understand,text,sentence,syntax,target,age,response,comments,picture1,response3,education,name,languages,sex,RT,correct3,context,trial_number,startTime,attempts,paraphrase,question3,fairprice,reference,question2,response2,correct,trial_name,adj,utterance
2099,<i>What do you think Speaker A meant? </i>,NA,NA,NA,32,NA,NA,NA,no,1,NA,sarah,1,NA,yes,NA,"<b> Speaker A: ""The Empire State Building is tall.""</b>",NA,NA,42,buildings,NA,NA,NA,some_college,comp_class_warmup,English,female,NA,NA,In the main trials you will be asked to rephrase something a person said. The utterance will contain a word that is <i>relative</i> and your task is to figure out what it is relative to. <br /> <br /> For example: <br />,1,1585934841745,1,The Empire State Building is tall relative to other,NA,1,NA,NA,NA,"buildings, skyscrapers, houses, constructions (choose one)",comp_class_warmup,NA,NA
2099,NA,tree,NA,NA,32,warmup/bonsai.jpg,redwood or sequoia (choose one),This is a,no,1,trees,sarah,NA,bonsai,yes,Please label the pictures below.,NA,NA,NA,42,NA,NA,warmup/sequoia.png,trees,some_college,NA,English,female,NA,trees,NA,1,1585934841745,1,NA,This is a,1,NA,These are both,bonsai,NA,warmup1,NA,NA
2099,NA,redwood,NA,NA,32,warmup/bonsai.jpg,redwood or sequoia (choose one),This is a,no,1,trees,sarah,NA,bonsai,yes,Please label the pictures below.,NA,NA,NA,42,NA,NA,warmup/sequoia.png,trees,some_college,NA,English,female,NA,trees,NA,1,1585934841745,2,NA,This is a,1,NA,These are both,bonsai,NA,warmup1,NA,NA
2099,NA,puppy,NA,NA,32,warmup/doberman.jpg,chihuahua,This is a,no,1,dogs1,sarah,NA,doberman,yes,Please label the pictures below.,NA,NA,NA,42,NA,NA,warmup/chihuahua.jpg,dogs,some_college,NA,English,female,NA,dogs,NA,2,1585934841745,1,NA,This is a,1,NA,These are both,german shepherd,NA,warmup1,NA,NA
2099,NA,chihuahua,NA,NA,32,warmup/doberman.jpg,chihuahua,This is a,no,1,dogs1,sarah,NA,doberman,yes,Please label the pictures below.,NA,NA,NA,42,NA,NA,warmup/chihuahua.jpg,dogs,some_college,NA,English,female,NA,dogs,NA,2,1585934841745,2,NA,This is a,1,NA,These are both,doberman,NA,warmup1,NA,NA
2099,NA,hummingbird,NA,NA,32,warmup/eagle.png,hummingbird,This is a,no,1,birds,sarah,NA,eagle,yes,Please label the pictures below.,NA,NA,NA,42,NA,NA,warmup/colibri.jpg,birds,some_college,NA,English,female,NA,birds,NA,3,1585934841745,1,NA,This is an,1,NA,These are both,eagle,NA,warmup1,NA,NA
2099,What do you think your friend is saying is it small  relative to?,NA,images/bonsai_stick.png,images/tree-parade-basic.png,32,NA,NA,NA,no,1,trees,sarah,NA,NA,yes,Your friend goes ahead of you. You see your friend in the distance:,NA,predicate,bonsai,42,trees,NA,NA,NA,some_college,NA,English,female,15127,NA,You and your friend walk to your friend's cabin in a park for the first time. You want to memorize the path and you see the following:,1,1585934841745,NA,It is small  relative to other,NA,1,landmark,NA,NA,NA,custom_main_text1,small,Your friend says: <br/><b>That landmark is a small bonsai.</b>
2099,What do you think your friend is saying is it small relative to?,NA,images/chihuahua.png,images/dog-parade-basic.png,32,NA,NA,NA,no,1,dogs1,sarah,NA,NA,yes,Your friend goes ahead of you. You see your friend in the distance:,NA,predicate,chihuahua,42,dogs,NA,NA,NA,some_college,NA,English,female,7848,NA,You and your friend are at an animal training ground and you see the following:,2,1585934841745,NA,It is small relative to other,NA,1,service animal,NA,NA,NA,custom_main_text1,small,Your friend says: <br/><b>That service animal is a small chihuahua.</b>
2099,What do you think your friend is saying is it small  relative to?,NA,images/hummingbird.png,images/bird-parade-basic.png,32,NA,NA,NA,no,1,birds,sarah,NA,NA,yes,Your friend goes ahead of you. You see your friend in the distance:,NA,subject,hummingbird,42,birds,NA,NA,NA,some_college,NA,English,female,9199,NA,You visit your friend who works at an animal shelter and you see the following:,3,1585934841745,NA,It is small  relative to other,NA,1,rescue,NA,NA,NA,custom_main_text1,small,Your friend says: <br/><b>That small hummingbird is a rescue.</b>
2099,NA,dandelion,NA,NA,32,warmup/sunflower.jpg,dandelion,This is a,no,1,flowers,sarah,NA,sunflower,yes,Please label the pictures below.,NA,NA,NA,42,NA,NA,warmup/dandelion.jpg,flowers,some_college,NA,English,female,NA,flowers,NA,1,1585934841745,1,NA,This is a,1,NA,These are both,sunflower,NA,warmup2,NA,NA
2099,NA,pug,NA,NA,32,warmup/great-dane.jpg,pug,This is a,no,1,dogs2,sarah,NA,great dane,yes,Please label the pictures below.,NA,NA,NA,42,NA,NA,warmup/pug.jpg,dogs,some_college,NA,English,female,NA,dogs,NA,2,1585934841745,1,NA,This is a,1,NA,These are both,great dane,NA,warmup2,NA,NA
2099,What do you think your friend is saying is it big  relative to?,NA,images/great-dane.png,images/dog-parade-basic2.png,32,NA,NA,NA,no,1,dogs2,sarah,NA,NA,yes,Your friend goes ahead of you. You see your friend in the distance:,NA,subject,great dane,42,dogs,NA,NA,NA,some_college,NA,English,female,8073,NA,You and your friend are at a pet show and you see the following:,1,1585934841745,NA,It is big  relative to other,NA,1,prize-winner,NA,NA,NA,custom_main_text2,big,Your friend says: <br/><b>That big Great Dane is a prize-winner.</b>
2099,What do you think your friend is saying is it big  relative to?,NA,images/sunflower.png,images/flower-parade-basic.png,32,NA,NA,NA,no,1,flowers,sarah,NA,NA,yes,Your friend goes ahead of you. You see your friend in the distance:,NA,predicate,sunflower,42,flowers,NA,NA,NA,some_college,NA,English,female,5999,NA,You and your friend are at their garden and you see the following:,2,1585934841745,NA,It is big  relative to other,NA,1,gift,NA,NA,NA,custom_main_text2,big,Your friend says: <br/><b>That gift is a big sunflower.</b>
2098,<i>What do you think Speaker A meant? </i>,NA,NA,NA,32,NA,NA,NA,no,2,NA,susan,1,NA,yes,NA,"<b> Speaker A: ""The Empire State Building is tall.""</b>",NA,NA,35,buildings,thanks,NA,NA,graduated_college,comp_class_warmup,english,female,NA,NA,In the main trials you will be asked to rephrase something a person said. The utterance will contain a word that is <i>relative</i> and your task is to figure out what it is relative to. <br /> <br /> For example: <br />,1,1585928532738,1,The Empire State Building is tall relative to other,NA,1,NA,NA,NA,"buildings, skyscrapers, houses, constructions (choose one)",comp_class_warmup,NA,NA
2098,NA,rat dog,NA,NA,32,warmup/doberman.jpg,chihuahua,This is a,no,2,dogs1,susan,NA,doberman,yes,Please label the pictures below.,NA,NA,NA,35,NA,thanks,warmup/chihuahua.jpg,dogs,graduated_college,NA,english,female,NA,dogs,NA,1,1585928532738,1,NA,This is a,1,NA,These are both,great dane,NA,warmup1,NA,NA
2098,NA,chihuahua,NA,NA,32,warmup/doberman.jpg,chihuahua,This is a,no,2,dogs1,susan,NA,doberman,yes,Please label the pictures below.,NA,NA,NA,35,NA,thanks,warmup/chihuahua.jpg,dogs,graduated_college,NA,english,female,NA,dogs,NA,1,1585928532738,2,NA,This is a,1,NA,These are both,doberman,NA,warmup1,NA,NA
2098,NA,tree,NA,NA,32,warmup/bonsai.jpg,redwood or sequoia (choose one),This is a,no,2,trees,susan,NA,bonsai,yes,Please label the pictures below.,NA,NA,NA,35,NA,thanks,warmup/sequoia.png,plants,graduated_college,NA,english,female,NA,trees,NA,2,1585928532738,1,NA,This is a,1,NA,These are both,bonzi,NA,warmup1,NA,NA
2098,NA,redwood,NA,NA,32,warmup/bonsai.jpg,redwood or sequoia (choose one),This is a,no,2,trees,susan,NA,bonsai,yes,Please label the pictures below.,NA,NA,NA,35,NA,thanks,warmup/sequoia.png,trees,graduated_college,NA,english,female,NA,trees,NA,2,1585928532738,2,NA,This is a,1,NA,These are both,bonsai,NA,warmup1,NA,NA
2098,NA,dandelion,NA,NA,32,warmup/sunflower.jpg,dandelion,This is a,no,2,flowers,susan,NA,sunflower,yes,Please label the pictures below.,NA,NA,NA,35,NA,thanks,warmup/dandelion.jpg,flowers,graduated_college,NA,english,female,NA,flowers,NA,3,1585928532738,1,NA,This is a,1,NA,These are both,sunflower,NA,warmup1,NA,NA
2098,What do you think your friend is saying is it big  relative to?,NA,images/redwood_sign.png,images/tree-parade-basic.png,32,NA,NA,NA,no,2,trees,susan,NA,NA,yes,Your friend goes ahead of you. You see your friend in the distance:,NA,predicate,redwood,35,trees,thanks,NA,NA,graduated_college,NA,english,female,13359,NA,You and your friend walk to your friend's cabin in a park for the first time. You want to memorize the path and you see the following:,1,1585928532738,NA,It is big  relative to other,NA,1,landmark,NA,NA,NA,custom_main_text1,big,Your friend says: <br/><b>That landmark is a big redwood.</b>
2098,What do you think your friend is saying is it small relative to?,NA,images/chihuahua.png,images/dog-parade-basic.png,32,NA,NA,NA,no,2,dogs1,susan,NA,NA,yes,Your friend goes ahead of you. You see your friend in the distance:,NA,subject,chihuahua,35,chihuahuas,thanks,NA,NA,graduated_college,NA,english,female,12263,NA,You and your friend are at an animal training ground and you see the following:,2,1585928532738,NA,It is small relative to other,NA,1,service animal,NA,NA,NA,custom_main_text1,small,Your friend says: <br/><b>That small chihuahua is a service animal.</b>
2098,What do you think your friend is saying is it small  relative to?,NA,images/dandelion.png,images/flower-parade-basic.png,32,NA,NA,NA,no,2,flowers,susan,NA,NA,yes,Your friend goes ahead of you. You see your friend in the distance:,NA,predicate,dandelion,35,gifts,thanks,NA,NA,graduated_college,NA,english,female,8353,NA,You and your friend are at their garden and you see the following:,3,1585928532738,NA,It is small  relative to other,NA,1,gift,NA,NA,NA,custom_main_text1,small,Your friend says: <br/><b>That gift is a small dandelion.</b>
2098,NA,pug,NA,NA,32,warmup/great-dane.jpg,pug,This is a,no,2,dogs2,susan,NA,great dane,yes,Please label the pictures below.,NA,NA,NA,35,NA,thanks,warmup/pug.jpg,dogs,graduated_college,NA,english,female,NA,dogs,NA,1,1585928532738,1,NA,This is a,1,NA,These are both,doberman,NA,warmup2,NA,NA
2098,NA,pug,NA,NA,32,warmup/great-dane.jpg,pug,This is a,no,2,dogs2,susan,NA,great dane,yes,Please label the pictures below.,NA,NA,NA,35,NA,thanks,warmup/pug.jpg,dogs,graduated_college,NA,english,female,NA,dogs,NA,1,1585928532738,2,NA,This is a,1,NA,These are both,great dane,NA,warmup2,NA,NA
2098,NA,hummingbird,NA,NA,32,warmup/eagle.png,hummingbird,This is a,no,2,birds,susan,NA,eagle,yes,Please label the pictures below.,NA,NA,NA,35,NA,thanks,warmup/colibri.jpg,birds,graduated_college,NA,english,female,NA,birds,NA,2,1585928532738,1,NA,This is an,1,NA,These are both,eagle,NA,warmup2,NA,NA
2098,What do you think your friend is saying is it big  relative to?,NA,images/great-dane.png,images/dog-parade-basic2.png,32,NA,NA,NA,no,2,dogs2,susan,NA,NA,yes,Your friend goes ahead of you. You see your friend in the distance:,NA,subject,great dane,35,dogs,thanks,NA,NA,graduated_college,NA,english,female,7384,NA,You and your friend are at a pet show and you see the following:,1,1585928532738,NA,It is big  relative to other,NA,1,prize-winner,NA,NA,NA,custom_main_text2,big,Your friend says: <br/><b>That big Great Dane is a prize-winner.</b>
2098,What do you think your friend is saying is it small  relative to?,NA,images/hummingbird.png,images/bird-parade-basic.png,32,NA,NA,NA,no,2,birds,susan,NA,NA,yes,Your friend goes ahead of you. You see your friend in the distance:,NA,subject,hummingbird,35,birds,thanks,NA,NA,graduated_college,NA,english,female,4872,NA,You visit your friend who works at an animal shelter and you see the following:,2,1585928532738,NA,It is small  relative to other,NA,1,rescue,NA,NA,NA,custom_main_text2,small,Your friend says: <br/><b>That small hummingbird is a rescue.</b>
2097,<i>What do you think Speaker A meant? </i>,NA,NA,NA,32,NA,NA,NA,no,2,NA,linda,1,NA,yes,NA,"<b> Speaker A: ""The Empire State Building is tall.""</b>",NA,NA,33,buildings,no,NA,NA,graduated_high_school,comp_class_warmup,English,male,NA,NA,In the main trials you will be asked to rephrase something a person said. The utterance will contain a word that is <i>relative</i> and your task is to figure out what it is relative to. <br /> <br /> For example: <br />,1,1585927971251,1,The Empire State Building is tall relative to other,NA,1,NA,NA,NA,"buildings, skyscrapers, houses, constructions (choose one)",comp_class_warmup,NA,NA
2097,NA,daffodil,NA,NA,32,warmup/sunflower.jpg,dandelion,This is a,no,2,flowers,linda,NA,sunflower,yes,Please label the pictures below.,NA,NA,NA,33,NA,no,warmup/dandelion.jpg,flowers,graduated_high_school,NA,English,male,NA,flowers,NA,1,1585927971251,1,NA,This is a,1,NA,These are both,sunflower,NA,warmup1,NA,NA
2097,NA,dandelion,NA,NA,32,warmup/sunflower.jpg,dandelion,This is a,no,2,flowers,linda,NA,sunflower,yes,Please label the pictures below.,NA,NA,NA,33,NA,no,warmup/dandelion.jpg,flowers,graduated_high_school,NA,English,male,NA,flowers,NA,1,1585927971251,2,NA,This is a,1,NA,These are both,sunflower,NA,warmup1,NA,NA
2097,NA,pug,NA,NA,32,warmup/great-dane.jpg,pug,This is a,no,2,dogs2,linda,NA,great dane,yes,Please label the pictures below.,NA,NA,NA,33,NA,no,warmup/pug.jpg,dogs,graduated_high_school,NA,English,male,NA,dogs,NA,2,1585927971251,1,NA,This is a,1,NA,These are both,pitbull,NA,warmup1,NA,NA
2097,NA,pug,NA,NA,32,warmup/great-dane.jpg,pug,This is a,no,2,dogs2,linda,NA,great dane,yes,Please label the pictures below.,NA,NA,NA,33,NA,no,warmup/pug.jpg,dogs,graduated_high_school,NA,English,male,NA,dogs,NA,2,1585927971251,2,NA,This is a,1,NA,These are both,great dane,NA,warmup1,NA,NA
2097,NA,hummingbird,NA,NA,32,warmup/eagle.png,hummingbird,This is a,no,2,birds,linda,NA,eagle,yes,Please label the pictures below.,NA,NA,NA,33,NA,no,warmup/colibri.jpg,birds,graduated_high_school,NA,English,male,NA,birds,NA,3,1585927971251,1,NA,This is an,1,NA,These are both,eagle,NA,warmup1,NA,NA
2097,What do you think your friend is saying is it small  relative to?,NA,images/pug.png,images/dog-parade-basic2.png,32,NA,NA,NA,no,2,dogs2,linda,NA,NA,yes,Your friend goes ahead of you. You see your friend in the distance:,NA,subject,pug,33,dogs,no,NA,NA,graduated_high_school,NA,English,male,19855,NA,You and your friend are at a pet show and you see the following:,1,1585927971251,NA,It is small  relative to other,NA,1,prize-winner,NA,NA,NA,custom_main_text1,small,Your friend says: <br/><b>That small pug is a prize-winner.</b>
2097,What do you think your friend is saying is it small  relative to?,NA,images/dandelion.png,images/flower-parade-basic.png,32,NA,NA,NA,no,2,flowers,linda,NA,NA,yes,Your friend goes ahead of you. You see your friend in the distance:,NA,subject,dandelion,33,flowers,no,NA,NA,graduated_high_school,NA,English,male,9382,NA,You and your friend are at their garden and you see the following:,2,1585927971251,NA,It is small  relative to other,NA,1,gift,NA,NA,NA,custom_main_text1,small,Your friend says: <br/><b>That small dandelion is a gift.</b>
2097,What do you think your friend is saying is it big  relative to?,NA,images/eagle.png,images/bird-parade-basic.png,32,NA,NA,NA,no,2,birds,linda,NA,NA,yes,Your friend goes ahead of you. You see your friend in the distance:,NA,predicate,eagle,33,birds,no,NA,NA,graduated_high_school,NA,English,male,11912,NA,You visit your friend who works at an animal shelter and you see the following:,3,1585927971251,NA,It is big  relative to other,NA,1,rescue,NA,NA,NA,custom_main_text1,big,Your friend says: <br/><b>That rescue is a big eagle.</b>
2097,NA,sequioa,NA,NA,32,warmup/bonsai.jpg,redwood or sequoia (choose one),This is a,no,2,trees,linda,NA,bonsai,yes,Please label the pictures below.,NA,NA,NA,33,NA,no,warmup/sequoia.png,trees,graduated_high_school,NA,English,male,NA,trees,NA,1,1585927971251,1,NA,This is a,1,NA,These are both,bonzai,NA,warmup2,NA,NA
2097,NA,sequoia,NA,NA,32,warmup/bonsai.jpg,redwood or sequoia (choose one),This is a,no,2,trees,linda,NA,bonsai,yes,Please label the pictures below.,NA,NA,NA,33,NA,no,warmup/sequoia.png,trees,graduated_high_school,NA,English,male,NA,trees,NA,1,1585927971251,2,NA,This is a,1,NA,These are both,bonsai,NA,warmup2,NA,NA
2097,NA,chihuahua,NA,NA,32,warmup/doberman.jpg,chihuahua,This is a,no,2,dogs1,linda,NA,doberman,yes,Please label the pictures below.,NA,NA,NA,33,NA,no,warmup/chihuahua.jpg,dogs,graduated_high_school,NA,English,male,NA,dogs,NA,2,1585927971251,1,NA,This is a,1,NA,These are both,great dane,NA,warmup2,NA,NA
2097,NA,chihuahua,NA,NA,32,warmup/doberman.jpg,chihuahua,This is a,no,2,dogs1,linda,NA,doberman,yes,Please label the pictures below.,NA,NA,NA,33,NA,no,warmup/chihuahua.jpg,dogs,graduated_high_school,NA,English,male,NA,dogs,NA,2,1585927971251,2,NA,This is a,1,NA,These are both,doberman,NA,warmup2,NA,NA
2097,What do you think your friend is saying is it big relative to?,NA,images/doberman.png,images/dog-parade-basic.png,32,NA,NA,NA,no,2,dogs1,linda,NA,NA,yes,Your friend goes ahead of you. You see your friend in the distance:,NA,predicate,doberman,33,dogs,no,NA,NA,graduated_high_school,NA,English,male,12684,NA,You and your friend are at an animal training ground and you see the following:,1,1585927971251,NA,It is big relative to other,NA,1,service animal,NA,NA,NA,custom_main_text2,big,Your friend says: <br/><b>That service animal is a big doberman.</b>
2097,What do you think your friend is saying is it small  relative to?,NA,images/bonsai_stick.png,images/tree-parade-basic.png,32,NA,NA,NA,no,2,trees,linda,NA,NA,yes,Your friend goes ahead of you. You see your friend in the distance:,NA,subject,bonsai,33,trees,no,NA,NA,graduated_high_school,NA,English,male,8183,NA,You and your friend walk to your friend's cabin in a park for the first time. You want to memorize the path and you see the following:,2,1585927971251,NA,It is small  relative to other,NA,1,landmark,NA,NA,NA,custom_main_text2,small,Your friend says: <br/><b>That small bonsai is a landmark.</b>
2096,<i>What do you think Speaker A meant? </i>,NA,NA,NA,32,NA,NA,NA,Everything ran smoothly,2,NA,linda,1,NA,yes,NA,"<b> Speaker A: ""The Empire State Building is tall.""</b>",NA,NA,41,buildings,"Thank you very much for this HIT, and best of luck with your research",NA,NA,some_college,comp_class_warmup,Italian,male,NA,NA,In the main trials you will be asked to rephrase something a person said. The utterance will contain a word that is <i>relative</i> and your task is to figure out what it is relative to. <br /> <br /> For example: <br />,1,1585928030061,1,The Empire State Building is tall relative to other,NA,1,NA,NA,NA,"buildings, skyscrapers, houses, constructions (choose one)",comp_class_warmup,NA,NA
2096,NA,daisy,NA,NA,32,warmup/sunflower.jpg,dandelion,This is a,Everything ran smoothly,2,flowers,linda,NA,sunflower,yes,Please label the pictures below.,NA,NA,NA,41,NA,"Thank you very much for this HIT, and best of luck with your research",warmup/dandelion.jpg,flowers,some_college,NA,Italian,male,NA,flowers,NA,1,1585928030061,1,NA,This is a,1,NA,These are both,sunflower,NA,warmup1,NA,NA
2096,NA,dandelion,NA,NA,32,warmup/sunflower.jpg,dandelion,This is a,Everything ran smoothly,2,flowers,linda,NA,sunflower,yes,Please label the pictures below.,NA,NA,NA,41,NA,"Thank you very much for this HIT, and best of luck with your research",warmup/dandelion.jpg,flowers,some_college,NA,Italian,male,NA,flowers,NA,1,1585928030061,2,NA,This is a,1,NA,These are both,sunflower,NA,warmup1,NA,NA
2096,NA,french pit bull,NA,NA,32,warmup/great-dane.jpg,pug,This is a,Everything ran smoothly,2,dogs2,linda,NA,great dane,yes,Please label the pictures below.,NA,NA,NA,41,NA,"Thank you very much for this HIT, and best of luck with your research",warmup/pug.jpg,dogs,some_college,NA,Italian,male,NA,dogs,NA,2,1585928030061,1,NA,This is a,1,NA,These are both,alan,NA,warmup1,NA,NA
2096,NA,pug,NA,NA,32,warmup/great-dane.jpg,pug,This is a,Everything ran smoothly,2,dogs2,linda,NA,great dane,yes,Please label the pictures below.,NA,NA,NA,41,NA,"Thank you very much for this HIT, and best of luck with your research",warmup/pug.jpg,dogs,some_college,NA,Italian,male,NA,dogs,NA,2,1585928030061,2,NA,This is a,1,NA,These are both,great dane,NA,warmup1,NA,NA
2096,NA,hummingbird,NA,NA,32,warmup/eagle.png,hummingbird,This is a,Everything ran smoothly,2,birds,linda,NA,eagle,yes,Please label the pictures below.,NA,NA,NA,41,NA,"Thank you very much for this HIT, and best of luck with your research",warmup/colibri.jpg,birds,some_college,NA,Italian,male,NA,birds,NA,3,1585928030061,1,NA,This is an,1,NA,These are both,eagle,NA,warmup1,NA,NA
2096,What do you think your friend is saying is it small  relative to?,NA,images/hummingbird.png,images/bird-parade-basic.png,32,NA,NA,NA,Everything ran smoothly,2,birds,linda,NA,NA,yes,Your friend goes ahead of you. You see your friend in the distance:,NA,subject,hummingbird,41,birds,"Thank you very much for this HIT, and best of luck with your research",NA,NA,some_college,NA,Italian,male,18951,NA,You visit your friend who works at an animal shelter and you see the following:,1,1585928030061,NA,It is small  relative to other,NA,1,rescue,NA,NA,NA,custom_main_text1,small,Your friend says: <br/><b>That small hummingbird is a rescue.</b>
2096,What do you think your friend is saying is it big  relative to?,NA,images/sunflower.png,images/flower-parade-basic.png,32,NA,NA,NA,Everything ran smoothly,2,flowers,linda,NA,NA,yes,Your friend goes ahead of you. You see your friend in the distance:,NA,predicate,sunflower,41,flowers,"Thank you very much for this HIT, and best of luck with your research",NA,NA,some_college,NA,Italian,male,10057,NA,You and your friend are at their garden and you see the following:,2,1585928030061,NA,It is big  relative to other,NA,1,gift,NA,NA,NA,custom_main_text1,big,Your friend says: <br/><b>That gift is a big sunflower.</b>
2096,What do you think your friend is saying is it small  relative to?,NA,images/pug.png,images/dog-parade-basic2.png,32,NA,NA,NA,Everything ran smoothly,2,dogs2,linda,NA,NA,yes,Your friend goes ahead of you. You see your friend in the distance:,NA,predicate,pug,41,dogs,"Thank you very much for this HIT, and best of luck with your research",NA,NA,some_college,NA,Italian,male,10847,NA,You and your friend are at a pet show and you see the following:,3,1585928030061,NA,It is small  relative to other,NA,1,prize-winner,NA,NA,NA,custom_main_text1,small,Your friend says: <br/><b>That prize-winner is a small pug.</b>
2096,NA,pug,NA,NA,32,warmup/doberman.jpg,chihuahua,This is a,Everything ran smoothly,2,dogs1,linda,NA,doberman,yes,Please label the pictures below.,NA,NA,NA,41,NA,"Thank you very much for this HIT, and best of luck with your research",warmup/chihuahua.jpg,dogs,some_college,NA,Italian,male,NA,dogs,NA,1,1585928030061,1,NA,This is a,1,NA,These are both,rottweiler,NA,warmup2,NA,NA
2096,NA,chihuahua,NA,NA,32,warmup/doberman.jpg,chihuahua,This is a,Everything ran smoothly,2,dogs1,linda,NA,doberman,yes,Please label the pictures below.,NA,NA,NA,41,NA,"Thank you very much for this HIT, and best of luck with your research",warmup/chihuahua.jpg,dogs,some_college,NA,Italian,male,NA,dogs,NA,1,1585928030061,2,NA,This is a,1,NA,These are both,doberman,NA,warmup2,NA,NA
2096,NA,oak tree,NA,NA,32,warmup/bonsai.jpg,redwood or sequoia (choose one),This is a,Everything ran smoothly,2,trees,linda,NA,bonsai,yes,Please label the pictures below.,NA,NA,NA,41,NA,"Thank you very much for this HIT, and best of luck with your research",warmup/sequoia.png,trees,some_college,NA,Italian,male,NA,trees,NA,2,1585928030061,1,NA,This is a,1,NA,These are both,bonsai,NA,warmup2,NA,NA
2096,NA,sequoia,NA,NA,32,warmup/bonsai.jpg,redwood or sequoia (choose one),This is a,Everything ran smoothly,2,trees,linda,NA,bonsai,yes,Please label the pictures below.,NA,NA,NA,41,NA,"Thank you very much for this HIT, and best of luck with your research",warmup/sequoia.png,trees,some_college,NA,Italian,male,NA,trees,NA,2,1585928030061,2,NA,This is a,1,NA,These are both,bonsai,NA,warmup2,NA,NA
2096,What do you think your friend is saying is it big relative to?,NA,images/doberman.png,images/dog-parade-basic.png,32,NA,NA,NA,Everything ran smoothly,2,dogs1,linda,NA,NA,yes,Your friend goes ahead of you. You see your friend in the distance:,NA,subject,doberman,41,dogs,"Thank you very much for this HIT, and best of luck with your research",NA,NA,some_college,NA,Italian,male,8008,NA,You and your friend are at an animal training ground and you see the following:,1,1585928030061,NA,It is big relative to other,NA,1,service animal,NA,NA,NA,custom_main_text2,big,Your friend says: <br/><b>That big doberman is a service animal.</b>
2096,What do you think your friend is saying is it big  relative to?,NA,images/redwood_sign.png,images/tree-parade-basic.png,32,NA,NA,NA,Everything ran smoothly,2,trees,linda,NA,NA,yes,Your friend goes ahead of you. You see your friend in the distance:,NA,subject,redwood,41,trees,"Thank you very much for this HIT, and best of luck with your research",NA,NA,some_college,NA,Italian,male,9681,NA,You and your friend walk to your friend's cabin in a park for the first time. You want to memorize the path and you see the following:,2,1585928030061,NA,It is big  relative to other,NA,1,landmark,NA,NA,NA,custom_main_text2,big,Your friend says: <br/><b>That big redwood is a landmark.</b>
2095,<i>What do you think Speaker A meant? </i>,NA,NA,NA,32,NA,NA,NA,no,1,NA,Margaret,1,NA,yes,NA,"<b> Speaker A: ""The Empire State Building is tall.""</b>",NA,NA,33,buildings,It was a tad bit boring if anything.,NA,NA,graduated_college,comp_class_warmup,English,female,NA,NA,In the main trials you will be asked to rephrase something a person said. The utterance will contain a word that is <i>relative</i> and your task is to figure out what it is relative to. <br /> <br /> For example: <br />,1,1585927583703,1,The Empire State Building is tall relative to other,NA,3,NA,NA,NA,"buildings, skyscrapers, houses, constructions (choose one)",comp_class_warmup,NA,NA
2095,NA,small,NA,NA,32,warmup/great-dane.jpg,pug,This is a,no,1,dogs2,Margaret,NA,great dane,yes,Please label the pictures below.,NA,NA,NA,33,NA,It was a tad bit boring if anything.,warmup/pug.jpg,dogs,graduated_college,NA,English,female,NA,dogs,NA,1,1585927583703,1,NA,This is a,3,NA,These are both,large,NA,warmup1,NA,NA
2095,NA,pug,NA,NA,32,warmup/great-dane.jpg,pug,This is a,no,1,dogs2,Margaret,NA,great dane,yes,Please label the pictures below.,NA,NA,NA,33,NA,It was a tad bit boring if anything.,warmup/pug.jpg,dogs,graduated_college,NA,English,female,NA,dogs,NA,1,1585927583703,2,NA,This is a,3,NA,These are both,great dane,NA,warmup1,NA,NA
2095,NA,robbin,NA,NA,32,warmup/eagle.png,hummingbird,This is a,no,1,birds,Margaret,NA,eagle,yes,Please label the pictures below.,NA,NA,NA,33,NA,It was a tad bit boring if anything.,warmup/colibri.jpg,birds,graduated_college,NA,English,female,NA,birds,NA,2,1585927583703,1,NA,This is an,3,NA,These are both,eagle,NA,warmup1,NA,NA
2095,NA,hummingbird,NA,NA,32,warmup/eagle.png,hummingbird,This is a,no,1,birds,Margaret,NA,eagle,yes,Please label the pictures below.,NA,NA,NA,33,NA,It was a tad bit boring if anything.,warmup/colibri.jpg,birds,graduated_college,NA,English,female,NA,birds,NA,2,1585927583703,2,NA,This is an,3,NA,These are both,eagle,NA,warmup1,NA,NA
2095,NA,chiwawa,NA,NA,32,warmup/doberman.jpg,chihuahua,This is a,no,1,dogs1,Margaret,NA,doberman,yes,Please label the pictures below.,NA,NA,NA,33,NA,It was a tad bit boring if anything.,warmup/chihuahua.jpg,dogs,graduated_college,NA,English,female,NA,dogs,NA,3,1585927583703,1,NA,This is a,3,NA,These are both,great dane,NA,warmup1,NA,NA
2095,NA,chihuahua,NA,NA,32,warmup/doberman.jpg,chihuahua,This is a,no,1,dogs1,Margaret,NA,doberman,yes,Please label the pictures below.,NA,NA,NA,33,NA,It was a tad bit boring if anything.,warmup/chihuahua.jpg,dogs,graduated_college,NA,English,female,NA,dogs,NA,3,1585927583703,2,NA,This is a,3,NA,These are both,doberman,NA,warmup1,NA,NA
2095,What do you think your friend is saying is it small  relative to?,NA,images/pug.png,images/dog-parade-basic2.png,32,NA,NA,NA,no,1,dogs2,Margaret,NA,NA,yes,Your friend goes ahead of you. You see your friend in the distance:,NA,subject,pug,33,dogs,It was a tad bit boring if anything.,NA,NA,graduated_college,NA,English,female,20734,NA,You and your friend are at a pet show and you see the following:,1,1585927583703,NA,It is small  relative to other,NA,3,prize-winner,NA,NA,NA,custom_main_text1,small,Your friend says: <br/><b>That small pug is a prize-winner.</b>
2095,What do you think your friend is saying is it small  relative to?,NA,images/hummingbird.png,images/bird-parade-basic.png,32,NA,NA,NA,no,1,birds,Margaret,NA,NA,yes,Your friend goes ahead of you. You see your friend in the distance:,NA,predicate,hummingbird,33,birds,It was a tad bit boring if anything.,NA,NA,graduated_college,NA,English,female,3127,NA,You visit your friend who works at an animal shelter and you see the following:,2,1585927583703,NA,It is small  relative to other,NA,3,rescue,NA,NA,NA,custom_main_text1,small,Your friend says: <br/><b>That rescue is a small hummingbird.</b>
2095,What do you think your friend is saying is it big relative to?,NA,images/doberman.png,images/dog-parade-basic.png,32,NA,NA,NA,no,1,dogs1,Margaret,NA,NA,yes,Your friend goes ahead of you. You see your friend in the distance:,NA,subject,doberman,33,dogs,It was a tad bit boring if anything.,NA,NA,graduated_college,NA,English,female,7956,NA,You and your friend are at an animal training ground and you see the following:,3,1585927583703,NA,It is big relative to other,NA,3,service animal,NA,NA,NA,custom_main_text1,big,Your friend says: <br/><b>That big doberman is a service animal.</b>
2095,NA,tree,NA,NA,32,warmup/bonsai.jpg,redwood or sequoia (choose one),This is a,no,1,trees,Margaret,NA,bonsai,yes,Please label the pictures below.,NA,NA,NA,33,NA,It was a tad bit boring if anything.,warmup/sequoia.png,trees,graduated_college,NA,English,female,NA,trees,NA,1,1585927583703,1,NA,This is a,3,NA,These are both,bonsai,NA,warmup2,NA,NA
2095,NA,redwood,NA,NA,32,warmup/bonsai.jpg,redwood or sequoia (choose one),This is a,no,1,trees,Margaret,NA,bonsai,yes,Please label the pictures below.,NA,NA,NA,33,NA,It was a tad bit boring if anything.,warmup/sequoia.png,trees,graduated_college,NA,English,female,NA,trees,NA,1,1585927583703,2,NA,This is a,3,NA,These are both,bonsai,NA,warmup2,NA,NA
2095,NA,dandilion,NA,NA,32,warmup/sunflower.jpg,dandelion,This is a,no,1,flowers,Margaret,NA,sunflower,yes,Please label the pictures below.,NA,NA,NA,33,NA,It was a tad bit boring if anything.,warmup/dandelion.jpg,flowers,graduated_college,NA,English,female,NA,flowers,NA,2,1585927583703,1,NA,This is a,3,NA,These are both,sunflower,NA,warmup2,NA,NA
2095,NA,dandelion,NA,NA,32,warmup/sunflower.jpg,dandelion,This is a,no,1,flowers,Margaret,NA,sunflower,yes,Please label the pictures below.,NA,NA,NA,33,NA,It was a tad bit boring if anything.,warmup/dandelion.jpg,flowers,graduated_college,NA,English,female,NA,flowers,NA,2,1585927583703,2,NA,This is a,3,NA,These are both,sunflower,NA,warmup2,NA,NA
2095,What do you think your friend is saying is it small  relative to?,NA,images/dandelion.png,images/flower-parade-basic.png,32,NA,NA,NA,no,1,flowers,Margaret,NA,NA,yes,Your friend goes ahead of you. You see your friend in the distance:,NA,predicate,dandelion,33,flowers,It was a tad bit boring if anything.,NA,NA,graduated_college,NA,English,female,8664,NA,You and your friend are at their garden and you see the following:,1,1585927583703,NA,It is small  relative to other,NA,3,gift,NA,NA,NA,custom_main_text2,small,Your friend says: <br/><b>That gift is a small dandelion.</b>
2095,What do you think your friend is saying is it big  relative to?,NA,images/redwood_sign.png,images/tree-parade-basic.png,32,NA,NA,NA,no,1,trees,Margaret,NA,NA,yes,Your friend goes ahead of you. You see your friend in the distance:,NA,subject,redwood,33,landmarks,It was a tad bit boring if anything.,NA,NA,graduated_college,NA,English,female,17544,NA,You and your friend walk to your friend's cabin in a park for the first time. You want to memorize the path and you see the following:,2,1585927583703,NA,It is big  relative to other,NA,3,landmark,NA,NA,NA,custom_main_text2,big,Your friend says: <br/><b>That big redwood is a landmark.</b>
2094,<i>What do you think Speaker A meant? </i>,NA,NA,NA,32,NA,NA,NA,no,2,NA,susan,1,NA,NA,NA,"<b> Speaker A: ""The Empire State Building is tall.""</b>",NA,NA,NA,buildings,NA,NA,NA,NA,comp_class_warmup,english,NA,NA,NA,In the main trials you will be asked to rephrase something a person said. The utterance will contain a word that is <i>relative</i> and your task is to figure out what it is relative to. <br /> <br /> For example: <br />,1,1585927721258,1,The Empire State Building is tall relative to other,NA,1,NA,NA,NA,"buildings, skyscrapers, houses, constructions (choose one)",comp_class_warmup,NA,NA
2094,NA,pug,NA,NA,32,warmup/great-dane.jpg,pug,This is a,no,2,dogs2,susan,NA,great dane,NA,Please label the pictures below.,NA,NA,NA,NA,NA,NA,warmup/pug.jpg,dogs,NA,NA,english,NA,NA,dogs,NA,1,1585927721258,1,NA,This is a,1,NA,These are both,great dane,NA,warmup1,NA,NA
2094,NA,dandelion,NA,NA,32,warmup/sunflower.jpg,dandelion,This is a,no,2,flowers,susan,NA,sunflower,NA,Please label the pictures below.,NA,NA,NA,NA,NA,NA,warmup/dandelion.jpg,flowers,NA,NA,english,NA,NA,flowers,NA,2,1585927721258,1,NA,This is a,1,NA,These are both,sunflower,NA,warmup1,NA,NA
2094,NA,chihuahua,NA,NA,32,warmup/doberman.jpg,chihuahua,This is a,no,2,dogs1,susan,NA,doberman,NA,Please label the pictures below.,NA,NA,NA,NA,NA,NA,warmup/chihuahua.jpg,dogs,NA,NA,english,NA,NA,dogs,NA,3,1585927721258,1,NA,This is a,1,NA,These are both,doberman,NA,warmup1,NA,NA
2094,What do you think your friend is saying is it small  relative to?,NA,images/pug.png,images/dog-parade-basic2.png,32,NA,NA,NA,no,2,dogs2,susan,NA,NA,NA,Your friend goes ahead of you. You see your friend in the distance:,NA,subject,pug,NA,dogs,NA,NA,NA,NA,NA,english,NA,4815,NA,You and your friend are at a pet show and you see the following:,1,1585927721258,NA,It is small  relative to other,NA,1,prize-winner,NA,NA,NA,custom_main_text1,small,Your friend says: <br/><b>That small pug is a prize-winner.</b>
2094,What do you think your friend is saying is it small  relative to?,NA,images/dandelion.png,images/flower-parade-basic.png,32,NA,NA,NA,no,2,flowers,susan,NA,NA,NA,Your friend goes ahead of you. You see your friend in the distance:,NA,subject,dandelion,NA,flowers,NA,NA,NA,NA,NA,english,NA,4553,NA,You and your friend are at their garden and you see the following:,2,1585927721258,NA,It is small  relative to other,NA,1,gift,NA,NA,NA,custom_main_text1,small,Your friend says: <br/><b>That small dandelion is a gift.</b>
2094,What do you think your friend is saying is it big relative to?,NA,images/doberman.png,images/dog-parade-basic.png,32,NA,NA,NA,no,2,dogs1,susan,NA,NA,NA,Your friend goes ahead of you. You see your friend in the distance:,NA,predicate,doberman,NA,dogs,NA,NA,NA,NA,NA,english,NA,3862,NA,You and your friend are at an animal training ground and you see the following:,3,1585927721258,NA,It is big relative to other,NA,1,service animal,NA,NA,NA,custom_main_text1,big,Your friend says: <br/><b>That service animal is a big doberman.</b>
2094,NA,hummingbird,NA,NA,32,warmup/eagle.png,hummingbird,This is a,no,2,birds,susan,NA,eagle,NA,Please label the pictures below.,NA,NA,NA,NA,NA,NA,warmup/colibri.jpg,birds,NA,NA,english,NA,NA,birds,NA,1,1585927721258,1,NA,This is an,1,NA,These are both,eagle,NA,warmup2,NA,NA
2094,NA,sequoia,NA,NA,32,warmup/bonsai.jpg,redwood or sequoia (choose one),This is a,no,2,trees,susan,NA,bonsai,NA,Please label the pictures below.,NA,NA,NA,NA,NA,NA,warmup/sequoia.png,trees,NA,NA,english,NA,NA,trees,NA,2,1585927721258,1,NA,This is a,1,NA,These are both,bonsai,NA,warmup2,NA,NA
2094,What do you think your friend is saying is it small  relative to?,NA,images/hummingbird.png,images/bird-parade-basic.png,32,NA,NA,NA,no,2,birds,susan,NA,NA,NA,Your friend goes ahead of you. You see your friend in the distance:,NA,predicate,hummingbird,NA,hummingbirds,NA,NA,NA,NA,NA,english,NA,10253,NA,You visit your friend who works at an animal shelter and you see the following:,1,1585927721258,NA,It is small  relative to other,NA,1,rescue,NA,NA,NA,custom_main_text2,small,Your friend says: <br/><b>That rescue is a small hummingbird.</b>
2094,What do you think your friend is saying is it big  relative to?,NA,images/redwood_sign.png,images/tree-parade-basic.png,32,NA,NA,NA,no,2,trees,susan,NA,NA,NA,Your friend goes ahead of you. You see your friend in the distance:,NA,predicate,redwood,NA,trees,NA,NA,NA,NA,NA,english,NA,8203,NA,You and your friend walk to your friend's cabin in a park for the first time. You want to memorize the path and you see the following:,2,1585927721258,NA,It is big  relative to other,NA,1,landmark,NA,NA,NA,custom_main_text2,big,Your friend says: <br/><b>That landmark is a big redwood.</b>
2093,<i>What do you think Speaker A meant? </i>,NA,NA,NA,32,NA,NA,NA,None,1,NA,jennifer,1,NA,yes,NA,"<b> Speaker A: ""The Empire State Building is tall.""</b>",NA,NA,29,buildings,n/a,NA,NA,graduated_high_school,comp_class_warmup,English,male,NA,NA,In the main trials you will be asked to rephrase something a person said. The utterance will contain a word that is <i>relative</i> and your task is to figure out what it is relative to. <br /> <br /> For example: <br />,1,1585927592876,1,The Empire State Building is tall relative to other,NA,1.5,NA,NA,NA,"buildings, skyscrapers, houses, constructions (choose one)",comp_class_warmup,NA,NA
2093,NA,pug,NA,NA,32,warmup/great-dane.jpg,pug,This is a,None,1,dogs2,jennifer,NA,great dane,yes,Please label the pictures below.,NA,NA,NA,29,NA,n/a,warmup/pug.jpg,dogs,graduated_high_school,NA,English,male,NA,dogs,NA,1,1585927592876,1,NA,This is a,1.5,NA,These are both,doberman,NA,warmup1,NA,NA
2093,NA,pug,NA,NA,32,warmup/great-dane.jpg,pug,This is a,None,1,dogs2,jennifer,NA,great dane,yes,Please label the pictures below.,NA,NA,NA,29,NA,n/a,warmup/pug.jpg,dogs,graduated_high_school,NA,English,male,NA,dogs,NA,1,1585927592876,2,NA,This is a,1.5,NA,These are both,great dane,NA,warmup1,NA,NA
2093,NA,maple,NA,NA,32,warmup/bonsai.jpg,redwood or sequoia (choose one),This is a,None,1,trees,jennifer,NA,bonsai,yes,Please label the pictures below.,NA,NA,NA,29,NA,n/a,warmup/sequoia.png,trees,graduated_high_school,NA,English,male,NA,trees,NA,2,1585927592876,1,NA,This is a,1.5,NA,These are both,bonsai,NA,warmup1,NA,NA
2093,NA,redwood,NA,NA,32,warmup/bonsai.jpg,redwood or sequoia (choose one),This is a,None,1,trees,jennifer,NA,bonsai,yes,Please label the pictures below.,NA,NA,NA,29,NA,n/a,warmup/sequoia.png,trees,graduated_high_school,NA,English,male,NA,trees,NA,2,1585927592876,2,NA,This is a,1.5,NA,These are both,bonsai,NA,warmup1,NA,NA
2093,NA,dandelion,NA,NA,32,warmup/sunflower.jpg,dandelion,This is a,None,1,flowers,jennifer,NA,sunflower,yes,Please label the pictures below.,NA,NA,NA,29,NA,n/a,warmup/dandelion.jpg,flowers,graduated_high_school,NA,English,male,NA,flowers,NA,3,1585927592876,1,NA,This is a,1.5,NA,These are both,sunflower,NA,warmup1,NA,NA
2093,What do you think your friend is saying is it big  relative to?,NA,images/great-dane.png,images/dog-parade-basic2.png,32,NA,NA,NA,None,1,dogs2,jennifer,NA,NA,yes,Your friend goes ahead of you. You see your friend in the distance:,NA,predicate,great dane,29,dogs,n/a,NA,NA,graduated_high_school,NA,English,male,19621,NA,You and your friend are at a pet show and you see the following:,1,1585927592876,NA,It is big  relative to other,NA,1.5,prize-winner,NA,NA,NA,custom_main_text1,big,Your friend says: <br/><b>That prize-winner is a big Great Dane.</b>
2093,What do you think your friend is saying is it big  relative to?,NA,images/redwood_sign.png,images/tree-parade-basic.png,32,NA,NA,NA,None,1,trees,jennifer,NA,NA,yes,Your friend goes ahead of you. You see your friend in the distance:,NA,subject,redwood,29,trees,n/a,NA,NA,graduated_high_school,NA,English,male,13837,NA,You and your friend walk to your friend's cabin in a park for the first time. You want to memorize the path and you see the following:,2,1585927592876,NA,It is big  relative to other,NA,1.5,landmark,NA,NA,NA,custom_main_text1,big,Your friend says: <br/><b>That big redwood is a landmark.</b>
2093,What do you think your friend is saying is it small  relative to?,NA,images/dandelion.png,images/flower-parade-basic.png,32,NA,NA,NA,None,1,flowers,jennifer,NA,NA,yes,Your friend goes ahead of you. You see your friend in the distance:,NA,subject,dandelion,29,flowers,n/a,NA,NA,graduated_high_school,NA,English,male,7790,NA,You and your friend are at their garden and you see the following:,3,1585927592876,NA,It is small  relative to other,NA,1.5,gift,NA,NA,NA,custom_main_text1,small,Your friend says: <br/><b>That small dandelion is a gift.</b>
2093,NA,rat,NA,NA,32,warmup/doberman.jpg,chihuahua,This is a,None,1,dogs1,jennifer,NA,doberman,yes,Please label the pictures below.,NA,NA,NA,29,NA,n/a,warmup/chihuahua.jpg,dogs,graduated_high_school,NA,English,male,NA,dogs,NA,1,1585927592876,1,NA,This is a,1.5,NA,These are both,rottweiler,NA,warmup2,NA,NA
2093,NA,chihuahua,NA,NA,32,warmup/doberman.jpg,chihuahua,This is a,None,1,dogs1,jennifer,NA,doberman,yes,Please label the pictures below.,NA,NA,NA,29,NA,n/a,warmup/chihuahua.jpg,dogs,graduated_high_school,NA,English,male,NA,dogs,NA,1,1585927592876,2,NA,This is a,1.5,NA,These are both,doberman,NA,warmup2,NA,NA
2093,NA,hummingbird,NA,NA,32,warmup/eagle.png,hummingbird,This is a,None,1,birds,jennifer,NA,eagle,yes,Please label the pictures below.,NA,NA,NA,29,NA,n/a,warmup/colibri.jpg,birds,graduated_high_school,NA,English,male,NA,birds,NA,2,1585927592876,1,NA,This is an,1.5,NA,These are both,eagle,NA,warmup2,NA,NA
2093,What do you think your friend is saying is it big relative to?,NA,images/doberman.png,images/dog-parade-basic.png,32,NA,NA,NA,None,1,dogs1,jennifer,NA,NA,yes,Your friend goes ahead of you. You see your friend in the distance:,NA,subject,doberman,29,dogs,n/a,NA,NA,graduated_high_school,NA,English,male,9177,NA,You and your friend are at an animal training ground and you see the following:,1,1585927592876,NA,It is big relative to other,NA,1.5,service animal,NA,NA,NA,custom_main_text2,big,Your friend says: <br/><b>That big doberman is a service animal.</b>
2093,What do you think your friend is saying is it small  relative to?,NA,images/hummingbird.png,images/bird-parade-basic.png,32,NA,NA,NA,None,1,birds,jennifer,NA,NA,yes,Your friend goes ahead of you. You see your friend in the distance:,NA,predicate,hummingbird,29,birds,n/a,NA,NA,graduated_high_school,NA,English,male,4122,NA,You visit your friend who works at an animal shelter and you see the following:,2,1585927592876,NA,It is small  relative to other,NA,1.5,rescue,NA,NA,NA,custom_main_text2,small,Your friend says: <br/><b>That rescue is a small hummingbird.</b>
2092,<i>What do you think Speaker A meant? </i>,NA,NA,NA,32,NA,NA,NA,No,2,NA,jessica,1,NA,NA,NA,"<b> Speaker A: ""The Empire State Building is tall.""</b>",NA,NA,35,buildings,NA,NA,NA,graduated_college,comp_class_warmup,English,male,NA,NA,In the main trials you will be asked to rephrase something a person said. The utterance will contain a word that is <i>relative</i> and your task is to figure out what it is relative to. <br /> <br /> For example: <br />,1,1585927597591,1,The Empire State Building is tall relative to other,NA,1,NA,NA,NA,"buildings, skyscrapers, houses, constructions (choose one)",comp_class_warmup,NA,NA
2092,NA,hummingbird,NA,NA,32,warmup/eagle.png,hummingbird,This is a,No,2,birds,jessica,NA,eagle,NA,Please label the pictures below.,NA,NA,NA,35,NA,NA,warmup/colibri.jpg,birds,graduated_college,NA,English,male,NA,birds,NA,1,1585927597591,1,NA,This is an,1,NA,These are both,eagle,NA,warmup1,NA,NA
2092,NA,redwood,NA,NA,32,warmup/bonsai.jpg,redwood or sequoia (choose one),This is a,No,2,trees,jessica,NA,bonsai,NA,Please label the pictures below.,NA,NA,NA,35,NA,NA,warmup/sequoia.png,trees,graduated_college,NA,English,male,NA,trees,NA,2,1585927597591,1,NA,This is a,1,NA,These are both,bonsai,NA,warmup1,NA,NA
2092,NA,pug,NA,NA,32,warmup/great-dane.jpg,pug,This is a,No,2,dogs2,jessica,NA,great dane,NA,Please label the pictures below.,NA,NA,NA,35,NA,NA,warmup/pug.jpg,dogs,graduated_college,NA,English,male,NA,dogs,NA,3,1585927597591,1,NA,This is a,1,NA,These are both,mastiff,NA,warmup1,NA,NA
2092,NA,pug,NA,NA,32,warmup/great-dane.jpg,pug,This is a,No,2,dogs2,jessica,NA,great dane,NA,Please label the pictures below.,NA,NA,NA,35,NA,NA,warmup/pug.jpg,dogs,graduated_college,NA,English,male,NA,dogs,NA,3,1585927597591,2,NA,This is a,1,NA,These are both,great dane,NA,warmup1,NA,NA
2092,What do you think your friend is saying is it small  relative to?,NA,images/pug.png,images/dog-parade-basic2.png,32,NA,NA,NA,No,2,dogs2,jessica,NA,NA,NA,Your friend goes ahead of you. You see your friend in the distance:,NA,predicate,pug,35,dogs,NA,NA,NA,graduated_college,NA,English,male,18367,NA,You and your friend are at a pet show and you see the following:,1,1585927597591,NA,It is small  relative to other,NA,1,prize-winner,NA,NA,NA,custom_main_text1,small,Your friend says: <br/><b>That prize-winner is a small pug.</b>
2092,What do you think your friend is saying is it small  relative to?,NA,images/bonsai_stick.png,images/tree-parade-basic.png,32,NA,NA,NA,No,2,trees,jessica,NA,NA,NA,Your friend goes ahead of you. You see your friend in the distance:,NA,predicate,bonsai,35,trees,NA,NA,NA,graduated_college,NA,English,male,12413,NA,You and your friend walk to your friend's cabin in a park for the first time. You want to memorize the path and you see the following:,2,1585927597591,NA,It is small  relative to other,NA,1,landmark,NA,NA,NA,custom_main_text1,small,Your friend says: <br/><b>That landmark is a small bonsai.</b>
2092,What do you think your friend is saying is it small  relative to?,NA,images/hummingbird.png,images/bird-parade-basic.png,32,NA,NA,NA,No,2,birds,jessica,NA,NA,NA,Your friend goes ahead of you. You see your friend in the distance:,NA,subject,hummingbird,35,birds,NA,NA,NA,graduated_college,NA,English,male,4556,NA,You visit your friend who works at an animal shelter and you see the following:,3,1585927597591,NA,It is small  relative to other,NA,1,rescue,NA,NA,NA,custom_main_text1,small,Your friend says: <br/><b>That small hummingbird is a rescue.</b>
2092,NA,weed,NA,NA,32,warmup/sunflower.jpg,dandelion,This is a,No,2,flowers,jessica,NA,sunflower,NA,Please label the pictures below.,NA,NA,NA,35,NA,NA,warmup/dandelion.jpg,plants,graduated_college,NA,English,male,NA,flowers,NA,1,1585927597591,1,NA,This is a,1,NA,These are both,sunflower,NA,warmup2,NA,NA
2092,NA,dandelion,NA,NA,32,warmup/sunflower.jpg,dandelion,This is a,No,2,flowers,jessica,NA,sunflower,NA,Please label the pictures below.,NA,NA,NA,35,NA,NA,warmup/dandelion.jpg,plants,graduated_college,NA,English,male,NA,flowers,NA,1,1585927597591,2,NA,This is a,1,NA,These are both,sunflower,NA,warmup2,NA,NA
2092,NA,dandelion,NA,NA,32,warmup/sunflower.jpg,dandelion,This is a,No,2,flowers,jessica,NA,sunflower,NA,Please label the pictures below.,NA,NA,NA,35,NA,NA,warmup/dandelion.jpg,plants,graduated_college,NA,English,male,NA,flowers,NA,1,1585927597591,3,NA,This is a,1,NA,These are both,sunflower,NA,warmup2,NA,NA
2092,NA,dandelion,NA,NA,32,warmup/sunflower.jpg,dandelion,This is a,No,2,flowers,jessica,NA,sunflower,NA,Please label the pictures below.,NA,NA,NA,35,NA,NA,warmup/dandelion.jpg,plants,graduated_college,NA,English,male,NA,flowers,NA,1,1585927597591,4,NA,This is a,1,NA,These are both,sunflower,NA,warmup2,NA,NA
2092,NA,dandelion,NA,NA,32,warmup/sunflower.jpg,dandelion,This is a,No,2,flowers,jessica,NA,sunflower,NA,Please label the pictures below.,NA,NA,NA,35,NA,NA,warmup/dandelion.jpg,plants,graduated_college,NA,English,male,NA,flowers,NA,1,1585927597591,5,NA,This is a,1,NA,These are both,sunflower,NA,warmup2,NA,NA
2092,NA,dandelion,NA,NA,32,warmup/sunflower.jpg,dandelion,This is a,No,2,flowers,jessica,NA,sunflower,NA,Please label the pictures below.,NA,NA,NA,35,NA,NA,warmup/dandelion.jpg,plants,graduated_college,NA,English,male,NA,flowers,NA,1,1585927597591,6,NA,This is a,1,NA,These are both,sunflower,NA,warmup2,NA,NA
2092,NA,dandelion,NA,NA,32,warmup/sunflower.jpg,dandelion,This is a,No,2,flowers,jessica,NA,sunflower,NA,Please label the pictures below.,NA,NA,NA,35,NA,NA,warmup/dandelion.jpg,plants,graduated_college,NA,English,male,NA,flowers,NA,1,1585927597591,7,NA,This is a,1,NA,These are both,sunflower,NA,warmup2,NA,NA
2092,NA,dandelion,NA,NA,32,warmup/sunflower.jpg,dandelion,This is a,No,2,flowers,jessica,NA,sunflower,NA,Please label the pictures below.,NA,NA,NA,35,NA,NA,warmup/dandelion.jpg,plants,graduated_college,NA,English,male,NA,flowers,NA,1,1585927597591,8,NA,This is a,1,NA,These are both,sunflower,NA,warmup2,NA,NA
2092,NA,dandelion,NA,NA,32,warmup/sunflower.jpg,dandelion,This is a,No,2,flowers,jessica,NA,sunflower,NA,Please label the pictures below.,NA,NA,NA,35,NA,NA,warmup/dandelion.jpg,plants,graduated_college,NA,English,male,NA,flowers,NA,1,1585927597591,9,NA,This is a,1,NA,These are both,sunflower,NA,warmup2,NA,NA
2092,NA,dandelion,NA,NA,32,warmup/sunflower.jpg,dandelion,This is a,No,2,flowers,jessica,NA,sunflower,NA,Please label the pictures below.,NA,NA,NA,35,NA,NA,warmup/dandelion.jpg,plants,graduated_college,NA,English,male,NA,flowers,NA,1,1585927597591,10,NA,This is a,1,NA,These are both,sunflower,NA,warmup2,NA,NA
2092,NA,dandelion,NA,NA,32,warmup/sunflower.jpg,dandelion,This is a,No,2,flowers,jessica,NA,sunflower,NA,Please label the pictures below.,NA,NA,NA,35,NA,NA,warmup/dandelion.jpg,plants,graduated_college,NA,English,male,NA,flowers,NA,1,1585927597591,11,NA,This is a,1,NA,These are both,sunflower,NA,warmup2,NA,NA
2092,NA,dandelion,NA,NA,32,warmup/sunflower.jpg,dandelion,This is a,No,2,flowers,jessica,NA,sunflower,NA,Please label the pictures below.,NA,NA,NA,35,NA,NA,warmup/dandelion.jpg,plants,graduated_college,NA,English,male,NA,flowers,NA,1,1585927597591,12,NA,This is a,1,NA,These are both,sunflower,NA,warmup2,NA,NA
2092,NA,dandelion,NA,NA,32,warmup/sunflower.jpg,dandelion,This is a,No,2,flowers,jessica,NA,sunflower,NA,Please label the pictures below.,NA,NA,NA,35,NA,NA,warmup/dandelion.jpg,plants,graduated_college,NA,English,male,NA,flowers,NA,1,1585927597591,13,NA,This is a,1,NA,These are both,sunflower,NA,warmup2,NA,NA
2092,NA,dandelion,NA,NA,32,warmup/sunflower.jpg,dandelion,This is a,No,2,flowers,jessica,NA,sunflower,NA,Please label the pictures below.,NA,NA,NA,35,NA,NA,warmup/dandelion.jpg,flowers,graduated_college,NA,English,male,NA,flowers,NA,1,1585927597591,14,NA,This is a,1,NA,These are both,sunflower,NA,warmup2,NA,NA
2092,NA,chichuahua,NA,NA,32,warmup/doberman.jpg,chihuahua,This is a,No,2,dogs1,jessica,NA,doberman,NA,Please label the pictures below.,NA,NA,NA,35,NA,NA,warmup/chihuahua.jpg,dogs,graduated_college,NA,English,male,NA,dogs,NA,2,1585927597591,1,NA,This is a,1,NA,These are both,great dane,NA,warmup2,NA,NA
2092,NA,chihuahua,NA,NA,32,warmup/doberman.jpg,chihuahua,This is a,No,2,dogs1,jessica,NA,doberman,NA,Please label the pictures below.,NA,NA,NA,35,NA,NA,warmup/chihuahua.jpg,dogs,graduated_college,NA,English,male,NA,dogs,NA,2,1585927597591,2,NA,This is a,1,NA,These are both,doberman,NA,warmup2,NA,NA
2092,What do you think your friend is saying is it big relative to?,NA,images/doberman.png,images/dog-parade-basic.png,32,NA,NA,NA,No,2,dogs1,jessica,NA,NA,NA,Your friend goes ahead of you. You see your friend in the distance:,NA,predicate,doberman,35,dogs,NA,NA,NA,graduated_college,NA,English,male,5238,NA,You and your friend are at an animal training ground and you see the following:,1,1585927597591,NA,It is big relative to other,NA,1,service animal,NA,NA,NA,custom_main_text2,big,Your friend says: <br/><b>That service animal is a big doberman.</b>
2092,What do you think your friend is saying is it big  relative to?,NA,images/sunflower.png,images/flower-parade-basic.png,32,NA,NA,NA,No,2,flowers,jessica,NA,NA,NA,Your friend goes ahead of you. You see your friend in the distance:,NA,subject,sunflower,35,flowers,NA,NA,NA,graduated_college,NA,English,male,7342,NA,You and your friend are at their garden and you see the following:,2,1585927597591,NA,It is big  relative to other,NA,1,gift,NA,NA,NA,custom_main_text2,big,Your friend says: <br/><b>That big sunflower is a gift.</b>
2091,<i>What do you think Speaker A meant? </i>,NA,NA,NA,32,NA,NA,NA,All clear.,1,NA,jennifer,1,NA,yes,NA,"<b> Speaker A: ""The Empire State Building is tall.""</b>",NA,NA,49,buildings,Thank you.,NA,NA,graduated_high_school,comp_class_warmup,English,male,NA,NA,In the main trials you will be asked to rephrase something a person said. The utterance will contain a word that is <i>relative</i> and your task is to figure out what it is relative to. <br /> <br /> For example: <br />,1,1585926608358,1,The Empire State Building is tall relative to other,NA,1,NA,NA,NA,"buildings, skyscrapers, houses, constructions (choose one)",comp_class_warmup,NA,NA
2091,NA,hummingbird,NA,NA,32,warmup/eagle.png,hummingbird,This is a,All clear.,1,birds,jennifer,NA,eagle,yes,Please label the pictures below.,NA,NA,NA,49,NA,Thank you.,warmup/colibri.jpg,birds,graduated_high_school,NA,English,male,NA,birds,NA,1,1585926608358,1,NA,This is an,1,NA,These are both,eagle,NA,warmup1,NA,NA
2091,NA,chihuahua,NA,NA,32,warmup/doberman.jpg,chihuahua,This is a,All clear.,1,dogs1,jennifer,NA,doberman,yes,Please label the pictures below.,NA,NA,NA,49,NA,Thank you.,warmup/chihuahua.jpg,dogs,graduated_high_school,NA,English,male,NA,dogs,NA,2,1585926608358,1,NA,This is a,1,NA,These are both,doberman,NA,warmup1,NA,NA
2091,NA,dandelion,NA,NA,32,warmup/sunflower.jpg,dandelion,This is a,All clear.,1,flowers,jennifer,NA,sunflower,yes,Please label the pictures below.,NA,NA,NA,49,NA,Thank you.,warmup/dandelion.jpg,flowers,graduated_high_school,NA,English,male,NA,flowers,NA,3,1585926608358,1,NA,This is a,1,NA,These are both,sunflower,NA,warmup1,NA,NA
2091,What do you think your friend is saying is it small  relative to?,NA,images/hummingbird.png,images/bird-parade-basic.png,32,NA,NA,NA,All clear.,1,birds,jennifer,NA,NA,yes,Your friend goes ahead of you. You see your friend in the distance:,NA,subject,hummingbird,49,birds,Thank you.,NA,NA,graduated_high_school,NA,English,male,19224,NA,You visit your friend who works at an animal shelter and you see the following:,1,1585926608358,NA,It is small  relative to other,NA,1,rescue,NA,NA,NA,custom_main_text1,small,Your friend says: <br/><b>That small hummingbird is a rescue.</b>
2091,What do you think your friend is saying is it big  relative to?,NA,images/sunflower.png,images/flower-parade-basic.png,32,NA,NA,NA,All clear.,1,flowers,jennifer,NA,NA,yes,Your friend goes ahead of you. You see your friend in the distance:,NA,predicate,sunflower,49,flowers,Thank you.,NA,NA,graduated_high_school,NA,English,male,19325,NA,You and your friend are at their garden and you see the following:,2,1585926608358,NA,It is big  relative to other,NA,1,gift,NA,NA,NA,custom_main_text1,big,Your friend says: <br/><b>That gift is a big sunflower.</b>
2091,What do you think your friend is saying is it small relative to?,NA,images/chihuahua.png,images/dog-parade-basic.png,32,NA,NA,NA,All clear.,1,dogs1,jennifer,NA,NA,yes,Your friend goes ahead of you. You see your friend in the distance:,NA,subject,chihuahua,49,dogs,Thank you.,NA,NA,graduated_high_school,NA,English,male,7888,NA,You and your friend are at an animal training ground and you see the following:,3,1585926608358,NA,It is small relative to other,NA,1,service animal,NA,NA,NA,custom_main_text1,small,Your friend says: <br/><b>That small chihuahua is a service animal.</b>
2091,NA,redwood,NA,NA,32,warmup/bonsai.jpg,redwood or sequoia (choose one),This is a,All clear.,1,trees,jennifer,NA,bonsai,yes,Please label the pictures below.,NA,NA,NA,49,NA,Thank you.,warmup/sequoia.png,tress,graduated_high_school,NA,English,male,NA,trees,NA,1,1585926608358,1,NA,This is a,1,NA,These are both,origami,NA,warmup2,NA,NA
2091,NA,redwood,NA,NA,32,warmup/bonsai.jpg,redwood or sequoia (choose one),This is a,All clear.,1,trees,jennifer,NA,bonsai,yes,Please label the pictures below.,NA,NA,NA,49,NA,Thank you.,warmup/sequoia.png,trees,graduated_high_school,NA,English,male,NA,trees,NA,1,1585926608358,2,NA,This is a,1,NA,These are both,bonsai,NA,warmup2,NA,NA
2091,NA,bulldog,NA,NA,32,warmup/great-dane.jpg,pug,This is a,All clear.,1,dogs2,jennifer,NA,great dane,yes,Please label the pictures below.,NA,NA,NA,49,NA,Thank you.,warmup/pug.jpg,dogs,graduated_high_school,NA,English,male,NA,dogs,NA,2,1585926608358,1,NA,This is a,1,NA,These are both,greatdane,NA,warmup2,NA,NA
2091,NA,pug,NA,NA,32,warmup/great-dane.jpg,pug,This is a,All clear.,1,dogs2,jennifer,NA,great dane,yes,Please label the pictures below.,NA,NA,NA,49,NA,Thank you.,warmup/pug.jpg,dogs,graduated_high_school,NA,English,male,NA,dogs,NA,2,1585926608358,2,NA,This is a,1,NA,These are both,great dane,NA,warmup2,NA,NA
2091,What do you think your friend is saying is it big  relative to?,NA,images/great-dane.png,images/dog-parade-basic2.png,32,NA,NA,NA,All clear.,1,dogs2,jennifer,NA,NA,yes,Your friend goes ahead of you. You see your friend in the distance:,NA,predicate,great dane,49,dogs,Thank you.,NA,NA,graduated_high_school,NA,English,male,10056,NA,You and your friend are at a pet show and you see the following:,1,1585926608358,NA,It is big  relative to other,NA,1,prize-winner,NA,NA,NA,custom_main_text2,big,Your friend says: <br/><b>That prize-winner is a big Great Dane.</b>
2091,What do you think your friend is saying is it small  relative to?,NA,images/bonsai_stick.png,images/tree-parade-basic.png,32,NA,NA,NA,All clear.,1,trees,jennifer,NA,NA,yes,Your friend goes ahead of you. You see your friend in the distance:,NA,predicate,bonsai,49,trees,Thank you.,NA,NA,graduated_high_school,NA,English,male,27584,NA,You and your friend walk to your friend's cabin in a park for the first time. You want to memorize the path and you see the following:,2,1585926608358,NA,It is small  relative to other,NA,1,landmark,NA,NA,NA,custom_main_text2,small,Your friend says: <br/><b>That landmark is a small bonsai.</b>
2090,<i>What do you think Speaker A meant? </i>,NA,NA,NA,32,NA,NA,NA,n/a,2,NA,elizabeth,1,NA,NA,NA,"<b> Speaker A: ""The Empire State Building is tall.""</b>",NA,NA,42,building,n/a,NA,NA,graduated_college,comp_class_warmup,English,male,NA,NA,In the main trials you will be asked to rephrase something a person said. The utterance will contain a word that is <i>relative</i> and your task is to figure out what it is relative to. <br /> <br /> For example: <br />,1,1585926190076,1,The Empire State Building is tall relative to other,NA,1.3,NA,NA,NA,"buildings, skyscrapers, houses, constructions (choose one)",comp_class_warmup,NA,NA
2090,NA,marigold,NA,NA,32,warmup/sunflower.jpg,dandelion,This is a,n/a,2,flowers,elizabeth,NA,sunflower,NA,Please label the pictures below.,NA,NA,NA,42,NA,n/a,warmup/dandelion.jpg,flowers,graduated_college,NA,English,male,NA,flowers,NA,1,1585926190076,1,NA,This is a,1.3,NA,These are both,sunflower,NA,warmup1,NA,NA
2090,NA,dandelion,NA,NA,32,warmup/sunflower.jpg,dandelion,This is a,n/a,2,flowers,elizabeth,NA,sunflower,NA,Please label the pictures below.,NA,NA,NA,42,NA,n/a,warmup/dandelion.jpg,flowers,graduated_college,NA,English,male,NA,flowers,NA,1,1585926190076,2,NA,This is a,1.3,NA,These are both,sunflower,NA,warmup1,NA,NA
2090,NA,pomeranian,NA,NA,32,warmup/great-dane.jpg,pug,This is a,n/a,2,dogs2,elizabeth,NA,great dane,NA,Please label the pictures below.,NA,NA,NA,42,NA,n/a,warmup/pug.jpg,dog,graduated_college,NA,English,male,NA,dogs,NA,2,1585926190076,1,NA,This is a,1.3,NA,These are both,rautviller,NA,warmup1,NA,NA
2090,NA,pug,NA,NA,32,warmup/great-dane.jpg,pug,This is a,n/a,2,dogs2,elizabeth,NA,great dane,NA,Please label the pictures below.,NA,NA,NA,42,NA,n/a,warmup/pug.jpg,dogs,graduated_college,NA,English,male,NA,dogs,NA,2,1585926190076,2,NA,This is a,1.3,NA,These are both,great dane,NA,warmup1,NA,NA
2090,NA,kingfisher,NA,NA,32,warmup/eagle.png,hummingbird,This is a,n/a,2,birds,elizabeth,NA,eagle,NA,Please label the pictures below.,NA,NA,NA,42,NA,n/a,warmup/colibri.jpg,birds,graduated_college,NA,English,male,NA,birds,NA,3,1585926190076,1,NA,This is an,1.3,NA,These are both,eagle,NA,warmup1,NA,NA
2090,NA,hummingbird,NA,NA,32,warmup/eagle.png,hummingbird,This is a,n/a,2,birds,elizabeth,NA,eagle,NA,Please label the pictures below.,NA,NA,NA,42,NA,n/a,warmup/colibri.jpg,birds,graduated_college,NA,English,male,NA,birds,NA,3,1585926190076,2,NA,This is an,1.3,NA,These are both,eagle,NA,warmup1,NA,NA
2090,What do you think your friend is saying is it small  relative to?,NA,images/pug.png,images/dog-parade-basic2.png,32,NA,NA,NA,n/a,2,dogs2,elizabeth,NA,NA,NA,Your friend goes ahead of you. You see your friend in the distance:,NA,predicate,pug,42,dogs,n/a,NA,NA,graduated_college,NA,English,male,15279,NA,You and your friend are at a pet show and you see the following:,1,1585926190076,NA,It is small  relative to other,NA,1.3,prize-winner,NA,NA,NA,custom_main_text1,small,Your friend says: <br/><b>That prize-winner is a small pug.</b>
2090,What do you think your friend is saying is it big  relative to?,NA,images/eagle.png,images/bird-parade-basic.png,32,NA,NA,NA,n/a,2,birds,elizabeth,NA,NA,NA,Your friend goes ahead of you. You see your friend in the distance:,NA,predicate,eagle,42,birds,n/a,NA,NA,graduated_college,NA,English,male,15058,NA,You visit your friend who works at an animal shelter and you see the following:,2,1585926190076,NA,It is big  relative to other,NA,1.3,rescue,NA,NA,NA,custom_main_text1,big,Your friend says: <br/><b>That rescue is a big eagle.</b>
2090,What do you think your friend is saying is it small  relative to?,NA,images/dandelion.png,images/flower-parade-basic.png,32,NA,NA,NA,n/a,2,flowers,elizabeth,NA,NA,NA,Your friend goes ahead of you. You see your friend in the distance:,NA,subject,dandelion,42,flowers,n/a,NA,NA,graduated_college,NA,English,male,13650,NA,You and your friend are at their garden and you see the following:,3,1585926190076,NA,It is small  relative to other,NA,1.3,gift,NA,NA,NA,custom_main_text1,small,Your friend says: <br/><b>That small dandelion is a gift.</b>
2090,NA,puppy,NA,NA,32,warmup/doberman.jpg,chihuahua,This is a,n/a,2,dogs1,elizabeth,NA,doberman,NA,Please label the pictures below.,NA,NA,NA,42,NA,n/a,warmup/chihuahua.jpg,dogs,graduated_college,NA,English,male,NA,dogs,NA,1,1585926190076,1,NA,This is a,1.3,NA,These are both,rotviller,NA,warmup2,NA,NA
2090,NA,chihuahua,NA,NA,32,warmup/doberman.jpg,chihuahua,This is a,n/a,2,dogs1,elizabeth,NA,doberman,NA,Please label the pictures below.,NA,NA,NA,42,NA,n/a,warmup/chihuahua.jpg,dogs,graduated_college,NA,English,male,NA,dogs,NA,1,1585926190076,2,NA,This is a,1.3,NA,These are both,doberman,NA,warmup2,NA,NA
2090,NA,tree,NA,NA,32,warmup/bonsai.jpg,redwood or sequoia (choose one),This is a,n/a,2,trees,elizabeth,NA,bonsai,NA,Please label the pictures below.,NA,NA,NA,42,NA,n/a,warmup/sequoia.png,trees,graduated_college,NA,English,male,NA,trees,NA,2,1585926190076,1,NA,This is a,1.3,NA,These are both,bonsai,NA,warmup2,NA,NA
2090,NA,redwood,NA,NA,32,warmup/bonsai.jpg,redwood or sequoia (choose one),This is a,n/a,2,trees,elizabeth,NA,bonsai,NA,Please label the pictures below.,NA,NA,NA,42,NA,n/a,warmup/sequoia.png,trees,graduated_college,NA,English,male,NA,trees,NA,2,1585926190076,2,NA,This is a,1.3,NA,These are both,bonsai,NA,warmup2,NA,NA
2090,What do you think your friend is saying is it big  relative to?,NA,images/redwood_sign.png,images/tree-parade-basic.png,32,NA,NA,NA,n/a,2,trees,elizabeth,NA,NA,NA,Your friend goes ahead of you. You see your friend in the distance:,NA,subject,redwood,42,trees,n/a,NA,NA,graduated_college,NA,English,male,8755,NA,You and your friend walk to your friend's cabin in a park for the first time. You want to memorize the path and you see the following:,1,1585926190076,NA,It is big  relative to other,NA,1.3,landmark,NA,NA,NA,custom_main_text2,big,Your friend says: <br/><b>That big redwood is a landmark.</b>
2090,What do you think your friend is saying is it big relative to?,NA,images/doberman.png,images/dog-parade-basic.png,32,NA,NA,NA,n/a,2,dogs1,elizabeth,NA,NA,NA,Your friend goes ahead of you. You see your friend in the distance:,NA,subject,doberman,42,dogs,n/a,NA,NA,graduated_college,NA,English,male,9944,NA,You and your friend are at an animal training ground and you see the following:,2,1585926190076,NA,It is big relative to other,NA,1.3,service animal,NA,NA,NA,custom_main_text2,big,Your friend says: <br/><b>That big doberman is a service animal.</b>
2089,<i>What do you think Speaker A meant? </i>,NA,NA,NA,32,NA,NA,NA,the same dog image was called a great dane and doberman at different parts,2,NA,sarah,1,NA,yes,NA,"<b> Speaker A: ""The Empire State Building is tall.""</b>",NA,NA,36,buildings,NA,NA,NA,graduated_college,comp_class_warmup,english,male,NA,NA,In the main trials you will be asked to rephrase something a person said. The utterance will contain a word that is <i>relative</i> and your task is to figure out what it is relative to. <br /> <br /> For example: <br />,1,1585926254904,1,The Empire State Building is tall relative to other,NA,1.25,NA,NA,NA,"buildings, skyscrapers, houses, constructions (choose one)",comp_class_warmup,NA,NA
2089,NA,hummingbird,NA,NA,32,warmup/eagle.png,hummingbird,This is a,the same dog image was called a great dane and doberman at different parts,2,birds,sarah,NA,eagle,yes,Please label the pictures below.,NA,NA,NA,36,NA,NA,warmup/colibri.jpg,birds,graduated_college,NA,english,male,NA,birds,NA,1,1585926254904,1,NA,This is an,1.25,NA,These are both,eagle,NA,warmup1,NA,NA
2089,NA,pug,NA,NA,32,warmup/great-dane.jpg,pug,This is a,the same dog image was called a great dane and doberman at different parts,2,dogs2,sarah,NA,great dane,yes,Please label the pictures below.,NA,NA,NA,36,NA,NA,warmup/pug.jpg,dogs,graduated_college,NA,english,male,NA,dogs,NA,2,1585926254904,1,NA,This is a,1.25,NA,These are both,doberman,NA,warmup1,NA,NA
2089,NA,pug,NA,NA,32,warmup/great-dane.jpg,pug,This is a,the same dog image was called a great dane and doberman at different parts,2,dogs2,sarah,NA,great dane,yes,Please label the pictures below.,NA,NA,NA,36,NA,NA,warmup/pug.jpg,dogs,graduated_college,NA,english,male,NA,dogs,NA,2,1585926254904,2,NA,This is a,1.25,NA,These are both,great dane,NA,warmup1,NA,NA
2089,NA,oak,NA,NA,32,warmup/bonsai.jpg,redwood or sequoia (choose one),This is a,the same dog image was called a great dane and doberman at different parts,2,trees,sarah,NA,bonsai,yes,Please label the pictures below.,NA,NA,NA,36,NA,NA,warmup/sequoia.png,trees,graduated_college,NA,english,male,NA,trees,NA,3,1585926254904,1,NA,This is a,1.25,NA,These are both,bonsai,NA,warmup1,NA,NA
2089,NA,redwood,NA,NA,32,warmup/bonsai.jpg,redwood or sequoia (choose one),This is a,the same dog image was called a great dane and doberman at different parts,2,trees,sarah,NA,bonsai,yes,Please label the pictures below.,NA,NA,NA,36,NA,NA,warmup/sequoia.png,trees,graduated_college,NA,english,male,NA,trees,NA,3,1585926254904,2,NA,This is a,1.25,NA,These are both,bonsai,NA,warmup1,NA,NA
2089,What do you think your friend is saying is it big  relative to?,NA,images/great-dane.png,images/dog-parade-basic2.png,32,NA,NA,NA,the same dog image was called a great dane and doberman at different parts,2,dogs2,sarah,NA,NA,yes,Your friend goes ahead of you. You see your friend in the distance:,NA,predicate,great dane,36,dogs,NA,NA,NA,graduated_college,NA,english,male,9754,NA,You and your friend are at a pet show and you see the following:,1,1585926254904,NA,It is big  relative to other,NA,1.25,prize-winner,NA,NA,NA,custom_main_text1,big,Your friend says: <br/><b>That prize-winner is a big Great Dane.</b>
2089,What do you think your friend is saying is it small  relative to?,NA,images/hummingbird.png,images/bird-parade-basic.png,32,NA,NA,NA,the same dog image was called a great dane and doberman at different parts,2,birds,sarah,NA,NA,yes,Your friend goes ahead of you. You see your friend in the distance:,NA,predicate,hummingbird,36,birds,NA,NA,NA,graduated_college,NA,english,male,6605,NA,You visit your friend who works at an animal shelter and you see the following:,2,1585926254904,NA,It is small  relative to other,NA,1.25,rescue,NA,NA,NA,custom_main_text1,small,Your friend says: <br/><b>That rescue is a small hummingbird.</b>
2089,What do you think your friend is saying is it small  relative to?,NA,images/bonsai_stick.png,images/tree-parade-basic.png,32,NA,NA,NA,the same dog image was called a great dane and doberman at different parts,2,trees,sarah,NA,NA,yes,Your friend goes ahead of you. You see your friend in the distance:,NA,subject,bonsai,36,trees,NA,NA,NA,graduated_college,NA,english,male,4500,NA,You and your friend walk to your friend's cabin in a park for the first time. You want to memorize the path and you see the following:,3,1585926254904,NA,It is small  relative to other,NA,1.25,landmark,NA,NA,NA,custom_main_text1,small,Your friend says: <br/><b>That small bonsai is a landmark.</b>
2089,NA,chihuahua,NA,NA,32,warmup/doberman.jpg,chihuahua,This is a,the same dog image was called a great dane and doberman at different parts,2,dogs1,sarah,NA,doberman,yes,Please label the pictures below.,NA,NA,NA,36,NA,NA,warmup/chihuahua.jpg,dogs,graduated_college,NA,english,male,NA,dogs,NA,1,1585926254904,1,NA,This is a,1.25,NA,These are both,great dane,NA,warmup2,NA,NA
2089,NA,chihuahua,NA,NA,32,warmup/doberman.jpg,chihuahua,This is a,the same dog image was called a great dane and doberman at different parts,2,dogs1,sarah,NA,doberman,yes,Please label the pictures below.,NA,NA,NA,36,NA,NA,warmup/chihuahua.jpg,dogs,graduated_college,NA,english,male,NA,dogs,NA,1,1585926254904,2,NA,This is a,1.25,NA,These are both,doberman,NA,warmup2,NA,NA
2089,NA,poppy,NA,NA,32,warmup/sunflower.jpg,dandelion,This is a,the same dog image was called a great dane and doberman at different parts,2,flowers,sarah,NA,sunflower,yes,Please label the pictures below.,NA,NA,NA,36,NA,NA,warmup/dandelion.jpg,flowers,graduated_college,NA,english,male,NA,flowers,NA,2,1585926254904,1,NA,This is a,1.25,NA,These are both,sunflower,NA,warmup2,NA,NA
2089,NA,dandelion,NA,NA,32,warmup/sunflower.jpg,dandelion,This is a,the same dog image was called a great dane and doberman at different parts,2,flowers,sarah,NA,sunflower,yes,Please label the pictures below.,NA,NA,NA,36,NA,NA,warmup/dandelion.jpg,flowers,graduated_college,NA,english,male,NA,flowers,NA,2,1585926254904,2,NA,This is a,1.25,NA,These are both,sunflower,NA,warmup2,NA,NA
2089,What do you think your friend is saying is it big relative to?,NA,images/doberman.png,images/dog-parade-basic.png,32,NA,NA,NA,the same dog image was called a great dane and doberman at different parts,2,dogs1,sarah,NA,NA,yes,Your friend goes ahead of you. You see your friend in the distance:,NA,predicate,doberman,36,dogs,NA,NA,NA,graduated_college,NA,english,male,6927,NA,You and your friend are at an animal training ground and you see the following:,1,1585926254904,NA,It is big relative to other,NA,1.25,service animal,NA,NA,NA,custom_main_text2,big,Your friend says: <br/><b>That service animal is a big doberman.</b>
2089,What do you think your friend is saying is it big  relative to?,NA,images/sunflower.png,images/flower-parade-basic.png,32,NA,NA,NA,the same dog image was called a great dane and doberman at different parts,2,flowers,sarah,NA,NA,yes,Your friend goes ahead of you. You see your friend in the distance:,NA,subject,sunflower,36,flowers,NA,NA,NA,graduated_college,NA,english,male,7124,NA,You and your friend are at their garden and you see the following:,2,1585926254904,NA,It is big  relative to other,NA,1.25,gift,NA,NA,NA,custom_main_text2,big,Your friend says: <br/><b>That big sunflower is a gift.</b>
2088,<i>What do you think Speaker A meant? </i>,NA,NA,NA,32,NA,NA,NA,No,2,NA,elizabeth,1,NA,yes,NA,"<b> Speaker A: ""The Empire State Building is tall.""</b>",NA,NA,27,buildings,No,NA,NA,graduated_college,comp_class_warmup,"Japanese, English",male,NA,NA,In the main trials you will be asked to rephrase something a person said. The utterance will contain a word that is <i>relative</i> and your task is to figure out what it is relative to. <br /> <br /> For example: <br />,1,1585925931917,1,The Empire State Building is tall relative to other,NA,1,NA,NA,NA,"buildings, skyscrapers, houses, constructions (choose one)",comp_class_warmup,NA,NA
2088,NA,fox,NA,NA,32,warmup/doberman.jpg,chihuahua,This is a,No,2,dogs1,elizabeth,NA,doberman,yes,Please label the pictures below.,NA,NA,NA,27,NA,No,warmup/chihuahua.jpg,animals,graduated_college,NA,"Japanese, English",male,NA,dogs,NA,1,1585925931917,1,NA,This is a,1,NA,These are both,dog,NA,warmup1,NA,NA
2088,NA,dog,NA,NA,32,warmup/doberman.jpg,chihuahua,This is a,No,2,dogs1,elizabeth,NA,doberman,yes,Please label the pictures below.,NA,NA,NA,27,NA,No,warmup/chihuahua.jpg,animals,graduated_college,NA,"Japanese, English",male,NA,dogs,NA,1,1585925931917,2,NA,This is a,1,NA,These are both,dog,NA,warmup1,NA,NA
2088,NA,dog,NA,NA,32,warmup/doberman.jpg,chihuahua,This is a,No,2,dogs1,elizabeth,NA,doberman,yes,Please label the pictures below.,NA,NA,NA,27,NA,No,warmup/chihuahua.jpg,dogs,graduated_college,NA,"Japanese, English",male,NA,dogs,NA,1,1585925931917,3,NA,This is a,1,NA,These are both,dog,NA,warmup1,NA,NA
2088,NA,dog,NA,NA,32,warmup/doberman.jpg,chihuahua,This is a,No,2,dogs1,elizabeth,NA,doberman,yes,Please label the pictures below.,NA,NA,NA,27,NA,No,warmup/chihuahua.jpg,dogs,graduated_college,NA,"Japanese, English",male,NA,dogs,NA,1,1585925931917,4,NA,This is a,1,NA,These are both,dog,NA,warmup1,NA,NA
2088,NA,chihuahua,NA,NA,32,warmup/doberman.jpg,chihuahua,This is a,No,2,dogs1,elizabeth,NA,doberman,yes,Please label the pictures below.,NA,NA,NA,27,NA,No,warmup/chihuahua.jpg,dogs,graduated_college,NA,"Japanese, English",male,NA,dogs,NA,1,1585925931917,5,NA,This is a,1,NA,These are both,doberman,NA,warmup1,NA,NA
2088,NA,tree,NA,NA,32,warmup/bonsai.jpg,redwood or sequoia (choose one),This is a,No,2,trees,elizabeth,NA,bonsai,yes,Please label the pictures below.,NA,NA,NA,27,NA,No,warmup/sequoia.png,plants,graduated_college,NA,"Japanese, English",male,NA,trees,NA,2,1585925931917,1,NA,This is a,1,NA,These are both,flower,NA,warmup1,NA,NA
2088,NA,redwood,NA,NA,32,warmup/bonsai.jpg,redwood or sequoia (choose one),This is a,No,2,trees,elizabeth,NA,bonsai,yes,Please label the pictures below.,NA,NA,NA,27,NA,No,warmup/sequoia.png,trees,graduated_college,NA,"Japanese, English",male,NA,trees,NA,2,1585925931917,2,NA,This is a,1,NA,These are both,bonsai,NA,warmup1,NA,NA
2088,NA,flower,NA,NA,32,warmup/sunflower.jpg,dandelion,This is a,No,2,flowers,elizabeth,NA,sunflower,yes,Please label the pictures below.,NA,NA,NA,27,NA,No,warmup/dandelion.jpg,flowers,graduated_college,NA,"Japanese, English",male,NA,flowers,NA,3,1585925931917,1,NA,This is a,1,NA,These are both,sunflower,NA,warmup1,NA,NA
2088,NA,dandelion,NA,NA,32,warmup/sunflower.jpg,dandelion,This is a,No,2,flowers,elizabeth,NA,sunflower,yes,Please label the pictures below.,NA,NA,NA,27,NA,No,warmup/dandelion.jpg,flowers,graduated_college,NA,"Japanese, English",male,NA,flowers,NA,3,1585925931917,2,NA,This is a,1,NA,These are both,sunflower,NA,warmup1,NA,NA
2088,What do you think your friend is saying is it small  relative to?,NA,images/dandelion.png,images/flower-parade-basic.png,32,NA,NA,NA,No,2,flowers,elizabeth,NA,NA,yes,Your friend goes ahead of you. You see your friend in the distance:,NA,subject,dandelion,27,flowers,No,NA,NA,graduated_college,NA,"Japanese, English",male,38015,NA,You and your friend are at their garden and you see the following:,1,1585925931917,NA,It is small  relative to other,NA,1,gift,NA,NA,NA,custom_main_text1,small,Your friend says: <br/><b>That small dandelion is a gift.</b>
2088,What do you think your friend is saying is it big relative to?,NA,images/doberman.png,images/dog-parade-basic.png,32,NA,NA,NA,No,2,dogs1,elizabeth,NA,NA,yes,Your friend goes ahead of you. You see your friend in the distance:,NA,predicate,doberman,27,dogs,No,NA,NA,graduated_college,NA,"Japanese, English",male,19195,NA,You and your friend are at an animal training ground and you see the following:,2,1585925931917,NA,It is big relative to other,NA,1,service animal,NA,NA,NA,custom_main_text1,big,Your friend says: <br/><b>That service animal is a big doberman.</b>
2088,What do you think your friend is saying is it big  relative to?,NA,images/redwood_sign.png,images/tree-parade-basic.png,32,NA,NA,NA,No,2,trees,elizabeth,NA,NA,yes,Your friend goes ahead of you. You see your friend in the distance:,NA,subject,redwood,27,trees,No,NA,NA,graduated_college,NA,"Japanese, English",male,11791,NA,You and your friend walk to your friend's cabin in a park for the first time. You want to memorize the path and you see the following:,3,1585925931917,NA,It is big  relative to other,NA,1,landmark,NA,NA,NA,custom_main_text1,big,Your friend says: <br/><b>That big redwood is a landmark.</b>
2088,NA,pitbull,NA,NA,32,warmup/great-dane.jpg,pug,This is a,No,2,dogs2,elizabeth,NA,great dane,yes,Please label the pictures below.,NA,NA,NA,27,NA,No,warmup/pug.jpg,dogs,graduated_college,NA,"Japanese, English",male,NA,dogs,NA,1,1585925931917,1,NA,This is a,1,NA,These are both,bulldog,NA,warmup2,NA,NA
2088,NA,pug,NA,NA,32,warmup/great-dane.jpg,pug,This is a,No,2,dogs2,elizabeth,NA,great dane,yes,Please label the pictures below.,NA,NA,NA,27,NA,No,warmup/pug.jpg,dogs,graduated_college,NA,"Japanese, English",male,NA,dogs,NA,1,1585925931917,2,NA,This is a,1,NA,These are both,great dane,NA,warmup2,NA,NA
2088,NA,squix,NA,NA,32,warmup/eagle.png,hummingbird,This is a,No,2,birds,elizabeth,NA,eagle,yes,Please label the pictures below.,NA,NA,NA,27,NA,No,warmup/colibri.jpg,birds,graduated_college,NA,"Japanese, English",male,NA,birds,NA,2,1585925931917,1,NA,This is an,1,NA,These are both,eagle,NA,warmup2,NA,NA
2088,NA,hummingbird,NA,NA,32,warmup/eagle.png,hummingbird,This is a,No,2,birds,elizabeth,NA,eagle,yes,Please label the pictures below.,NA,NA,NA,27,NA,No,warmup/colibri.jpg,birds,graduated_college,NA,"Japanese, English",male,NA,birds,NA,2,1585925931917,2,NA,This is an,1,NA,These are both,eagle,NA,warmup2,NA,NA
2088,What do you think your friend is saying is it big  relative to?,NA,images/great-dane.png,images/dog-parade-basic2.png,32,NA,NA,NA,No,2,dogs2,elizabeth,NA,NA,yes,Your friend goes ahead of you. You see your friend in the distance:,NA,predicate,great dane,27,dogs,No,NA,NA,graduated_college,NA,"Japanese, English",male,12318,NA,You and your friend are at a pet show and you see the following:,1,1585925931917,NA,It is big  relative to other,NA,1,prize-winner,NA,NA,NA,custom_main_text2,big,Your friend says: <br/><b>That prize-winner is a big Great Dane.</b>
2088,What do you think your friend is saying is it small  relative to?,NA,images/hummingbird.png,images/bird-parade-basic.png,32,NA,NA,NA,No,2,birds,elizabeth,NA,NA,yes,Your friend goes ahead of you. You see your friend in the distance:,NA,predicate,hummingbird,27,birds,No,NA,NA,graduated_college,NA,"Japanese, English",male,50655,NA,You visit your friend who works at an animal shelter and you see the following:,2,1585925931917,NA,It is small  relative to other,NA,1,rescue,NA,NA,NA,custom_main_text2,small,Your friend says: <br/><b>That rescue is a small hummingbird.</b>
2087,<i>What do you think Speaker A meant? </i>,NA,NA,NA,32,NA,NA,NA,no,1,NA,Elizabeth,1,NA,yes,NA,"<b> Speaker A: ""The Empire State Building is tall.""</b>",NA,NA,23,buildings,tysm,NA,NA,some_college,comp_class_warmup,english,male,NA,NA,In the main trials you will be asked to rephrase something a person said. The utterance will contain a word that is <i>relative</i> and your task is to figure out what it is relative to. <br /> <br /> For example: <br />,1,1585926179368,1,The Empire State Building is tall relative to other,NA,1,NA,NA,NA,"buildings, skyscrapers, houses, constructions (choose one)",comp_class_warmup,NA,NA
2087,NA,tree,NA,NA,32,warmup/bonsai.jpg,redwood or sequoia (choose one),This is a,no,1,trees,Elizabeth,NA,bonsai,yes,Please label the pictures below.,NA,NA,NA,23,NA,tysm,warmup/sequoia.png,shrubbery,some_college,NA,english,male,NA,trees,NA,1,1585926179368,1,NA,This is a,1,NA,These are both,bush,NA,warmup1,NA,NA
2087,NA,redwood,NA,NA,32,warmup/bonsai.jpg,redwood or sequoia (choose one),This is a,no,1,trees,Elizabeth,NA,bonsai,yes,Please label the pictures below.,NA,NA,NA,23,NA,tysm,warmup/sequoia.png,trees,some_college,NA,english,male,NA,trees,NA,1,1585926179368,2,NA,This is a,1,NA,These are both,bonsai,NA,warmup1,NA,NA
2087,NA,hummingbird,NA,NA,32,warmup/eagle.png,hummingbird,This is a,no,1,birds,Elizabeth,NA,eagle,yes,Please label the pictures below.,NA,NA,NA,23,NA,tysm,warmup/colibri.jpg,birds,some_college,NA,english,male,NA,birds,NA,2,1585926179368,1,NA,This is an,1,NA,These are both,eagle,NA,warmup1,NA,NA
2087,NA,chihauhau,NA,NA,32,warmup/doberman.jpg,chihuahua,This is a,no,1,dogs1,Elizabeth,NA,doberman,yes,Please label the pictures below.,NA,NA,NA,23,NA,tysm,warmup/chihuahua.jpg,dogs,some_college,NA,english,male,NA,dogs,NA,3,1585926179368,1,NA,This is a,1,NA,These are both,dobber,NA,warmup1,NA,NA
2087,NA,chihuahua,NA,NA,32,warmup/doberman.jpg,chihuahua,This is a,no,1,dogs1,Elizabeth,NA,doberman,yes,Please label the pictures below.,NA,NA,NA,23,NA,tysm,warmup/chihuahua.jpg,dogs,some_college,NA,english,male,NA,dogs,NA,3,1585926179368,2,NA,This is a,1,NA,These are both,doberman,NA,warmup1,NA,NA
2087,What do you think your friend is saying is it big  relative to?,NA,images/redwood_sign.png,images/tree-parade-basic.png,32,NA,NA,NA,no,1,trees,Elizabeth,NA,NA,yes,Your friend goes ahead of you. You see your friend in the distance:,NA,predicate,redwood,23,trees,tysm,NA,NA,some_college,NA,english,male,41908,NA,You and your friend walk to your friend's cabin in a park for the first time. You want to memorize the path and you see the following:,1,1585926179368,NA,It is big  relative to other,NA,1,landmark,NA,NA,NA,custom_main_text1,big,Your friend says: <br/><b>That landmark is a big redwood.</b>
2087,What do you think your friend is saying is it small  relative to?,NA,images/hummingbird.png,images/bird-parade-basic.png,32,NA,NA,NA,no,1,birds,Elizabeth,NA,NA,yes,Your friend goes ahead of you. You see your friend in the distance:,NA,predicate,hummingbird,23,birds,tysm,NA,NA,some_college,NA,english,male,5298,NA,You visit your friend who works at an animal shelter and you see the following:,2,1585926179368,NA,It is small  relative to other,NA,1,rescue,NA,NA,NA,custom_main_text1,small,Your friend says: <br/><b>That rescue is a small hummingbird.</b>
2087,What do you think your friend is saying is it big relative to?,NA,images/doberman.png,images/dog-parade-basic.png,32,NA,NA,NA,no,1,dogs1,Elizabeth,NA,NA,yes,Your friend goes ahead of you. You see your friend in the distance:,NA,subject,doberman,23,dogs,tysm,NA,NA,some_college,NA,english,male,4001,NA,You and your friend are at an animal training ground and you see the following:,3,1585926179368,NA,It is big relative to other,NA,1,service animal,NA,NA,NA,custom_main_text1,big,Your friend says: <br/><b>That big doberman is a service animal.</b>
2087,NA,dandelion,NA,NA,32,warmup/sunflower.jpg,dandelion,This is a,no,1,flowers,Elizabeth,NA,sunflower,yes,Please label the pictures below.,NA,NA,NA,23,NA,tysm,warmup/dandelion.jpg,flowers,some_college,NA,english,male,NA,flowers,NA,1,1585926179368,1,NA,This is a,1,NA,These are both,sunflower,NA,warmup2,NA,NA
2087,NA,pug,NA,NA,32,warmup/great-dane.jpg,pug,This is a,no,1,dogs2,Elizabeth,NA,great dane,yes,Please label the pictures below.,NA,NA,NA,23,NA,tysm,warmup/pug.jpg,dogs,some_college,NA,english,male,NA,dogs,NA,2,1585926179368,1,NA,This is a,1,NA,These are both,doberman,NA,warmup2,NA,NA
2087,NA,pug,NA,NA,32,warmup/great-dane.jpg,pug,This is a,no,1,dogs2,Elizabeth,NA,great dane,yes,Please label the pictures below.,NA,NA,NA,23,NA,tysm,warmup/pug.jpg,dogs,some_college,NA,english,male,NA,dogs,NA,2,1585926179368,2,NA,This is a,1,NA,These are both,great dane,NA,warmup2,NA,NA
2087,What do you think your friend is saying is it small  relative to?,NA,images/pug.png,images/dog-parade-basic2.png,32,NA,NA,NA,no,1,dogs2,Elizabeth,NA,NA,yes,Your friend goes ahead of you. You see your friend in the distance:,NA,subject,pug,23,big dogs,tysm,NA,NA,some_college,NA,english,male,10160,NA,You and your friend are at a pet show and you see the following:,1,1585926179368,NA,It is small  relative to other,NA,1,prize-winner,NA,NA,NA,custom_main_text2,small,Your friend says: <br/><b>That small pug is a prize-winner.</b>
2087,What do you think your friend is saying is it big  relative to?,NA,images/sunflower.png,images/flower-parade-basic.png,32,NA,NA,NA,no,1,flowers,Elizabeth,NA,NA,yes,Your friend goes ahead of you. You see your friend in the distance:,NA,subject,sunflower,23,flowers,tysm,NA,NA,some_college,NA,english,male,12137,NA,You and your friend are at their garden and you see the following:,2,1585926179368,NA,It is big  relative to other,NA,1,gift,NA,NA,NA,custom_main_text2,big,Your friend says: <br/><b>That big sunflower is a gift.</b>
2086,<i>What do you think Speaker A meant? </i>,NA,NA,NA,32,NA,NA,NA,None,1,NA,Elizabeth,1,NA,NA,NA,"<b> Speaker A: ""The Empire State Building is tall.""</b>",NA,NA,NA,buildings,None,NA,NA,graduated_college,comp_class_warmup,english,NA,NA,NA,In the main trials you will be asked to rephrase something a person said. The utterance will contain a word that is <i>relative</i> and your task is to figure out what it is relative to. <br /> <br /> For example: <br />,1,1585925981860,1,The Empire State Building is tall relative to other,NA,1,NA,NA,NA,"buildings, skyscrapers, houses, constructions (choose one)",comp_class_warmup,NA,NA
2086,NA,hummingbird,NA,NA,32,warmup/eagle.png,hummingbird,This is a,None,1,birds,Elizabeth,NA,eagle,NA,Please label the pictures below.,NA,NA,NA,NA,NA,None,warmup/colibri.jpg,birds,graduated_college,NA,english,NA,NA,birds,NA,1,1585925981860,1,NA,This is an,1,NA,These are both,eagle,NA,warmup1,NA,NA
2086,NA,dandelion,NA,NA,32,warmup/sunflower.jpg,dandelion,This is a,None,1,flowers,Elizabeth,NA,sunflower,NA,Please label the pictures below.,NA,NA,NA,NA,NA,None,warmup/dandelion.jpg,flowers,graduated_college,NA,english,NA,NA,flowers,NA,2,1585925981860,1,NA,This is a,1,NA,These are both,sunflower,NA,warmup1,NA,NA
2086,NA,pug,NA,NA,32,warmup/great-dane.jpg,pug,This is a,None,1,dogs2,Elizabeth,NA,great dane,NA,Please label the pictures below.,NA,NA,NA,NA,NA,None,warmup/pug.jpg,dogs,graduated_college,NA,english,NA,NA,dogs,NA,3,1585925981860,1,NA,This is a,1,NA,These are both,great dane,NA,warmup1,NA,NA
2086,What do you think your friend is saying is it small  relative to?,NA,images/dandelion.png,images/flower-parade-basic.png,32,NA,NA,NA,None,1,flowers,Elizabeth,NA,NA,NA,Your friend goes ahead of you. You see your friend in the distance:,NA,subject,dandelion,NA,flowers,None,NA,NA,graduated_college,NA,english,NA,14311,NA,You and your friend are at their garden and you see the following:,1,1585925981860,NA,It is small  relative to other,NA,1,gift,NA,NA,NA,custom_main_text1,small,Your friend says: <br/><b>That small dandelion is a gift.</b>
2086,What do you think your friend is saying is it big  relative to?,NA,images/eagle.png,images/bird-parade-basic.png,32,NA,NA,NA,None,1,birds,Elizabeth,NA,NA,NA,Your friend goes ahead of you. You see your friend in the distance:,NA,subject,eagle,NA,birds,None,NA,NA,graduated_college,NA,english,NA,14865,NA,You visit your friend who works at an animal shelter and you see the following:,2,1585925981860,NA,It is big  relative to other,NA,1,rescue,NA,NA,NA,custom_main_text1,big,Your friend says: <br/><b>That big eagle is a rescue.</b>
2086,What do you think your friend is saying is it small  relative to?,NA,images/pug.png,images/dog-parade-basic2.png,32,NA,NA,NA,None,1,dogs2,Elizabeth,NA,NA,NA,Your friend goes ahead of you. You see your friend in the distance:,NA,predicate,pug,NA,dogs,None,NA,NA,graduated_college,NA,english,NA,6727,NA,You and your friend are at a pet show and you see the following:,3,1585925981860,NA,It is small  relative to other,NA,1,prize-winner,NA,NA,NA,custom_main_text1,small,Your friend says: <br/><b>That prize-winner is a small pug.</b>
2086,NA,redwood,NA,NA,32,warmup/bonsai.jpg,redwood or sequoia (choose one),This is a,None,1,trees,Elizabeth,NA,bonsai,NA,Please label the pictures below.,NA,NA,NA,NA,NA,None,warmup/sequoia.png,trees,graduated_college,NA,english,NA,NA,trees,NA,1,1585925981860,1,NA,This is a,1,NA,These are both,bonsai,NA,warmup2,NA,NA
2086,NA,chihuahua,NA,NA,32,warmup/doberman.jpg,chihuahua,This is a,None,1,dogs1,Elizabeth,NA,doberman,NA,Please label the pictures below.,NA,NA,NA,NA,NA,None,warmup/chihuahua.jpg,dogs,graduated_college,NA,english,NA,NA,dogs,NA,2,1585925981860,1,NA,This is a,1,NA,These are both,doberman,NA,warmup2,NA,NA
2086,What do you think your friend is saying is it big  relative to?,NA,images/redwood_sign.png,images/tree-parade-basic.png,32,NA,NA,NA,None,1,trees,Elizabeth,NA,NA,NA,Your friend goes ahead of you. You see your friend in the distance:,NA,predicate,redwood,NA,trees,None,NA,NA,graduated_college,NA,english,NA,8439,NA,You and your friend walk to your friend's cabin in a park for the first time. You want to memorize the path and you see the following:,1,1585925981860,NA,It is big  relative to other,NA,1,landmark,NA,NA,NA,custom_main_text2,big,Your friend says: <br/><b>That landmark is a big redwood.</b>
2086,What do you think your friend is saying is it big relative to?,NA,images/doberman.png,images/dog-parade-basic.png,32,NA,NA,NA,None,1,dogs1,Elizabeth,NA,NA,NA,Your friend goes ahead of you. You see your friend in the distance:,NA,subject,doberman,NA,dogs,None,NA,NA,graduated_college,NA,english,NA,7392,NA,You and your friend are at an animal training ground and you see the following:,2,1585925981860,NA,It is big relative to other,NA,1,service animal,NA,NA,NA,custom_main_text2,big,Your friend says: <br/><b>That big doberman is a service animal.</b>
2085,<i>What do you think Speaker A meant? </i>,NA,NA,NA,32,NA,NA,NA,no,2,NA,susan,1,NA,NA,NA,"<b> Speaker A: ""The Empire State Building is tall.""</b>",NA,NA,NA,buildings,"I hope most workers can identify and spell types of dogs off the top of their head, if you're looking for specific breeds from artwork. I'm just saying. At least you offer the hint, some requesters wouldn't.",NA,NA,NA,comp_class_warmup,NA,NA,NA,NA,In the main trials you will be asked to rephrase something a person said. The utterance will contain a word that is <i>relative</i> and your task is to figure out what it is relative to. <br /> <br /> For example: <br />,1,1585925892048,1,The Empire State Building is tall relative to other,NA,1,NA,NA,NA,"buildings, skyscrapers, houses, constructions (choose one)",comp_class_warmup,NA,NA
2085,NA,small dog,NA,NA,32,warmup/great-dane.jpg,pug,This is a,no,2,dogs2,susan,NA,great dane,NA,Please label the pictures below.,NA,NA,NA,NA,NA,"I hope most workers can identify and spell types of dogs off the top of their head, if you're looking for specific breeds from artwork. I'm just saying. At least you offer the hint, some requesters wouldn't.",warmup/pug.jpg,dogs,NA,NA,NA,NA,NA,dogs,NA,1,1585925892048,1,NA,This is a,1,NA,These are both,big dog,NA,warmup1,NA,NA
2085,NA,pug,NA,NA,32,warmup/great-dane.jpg,pug,This is a,no,2,dogs2,susan,NA,great dane,NA,Please label the pictures below.,NA,NA,NA,NA,NA,"I hope most workers can identify and spell types of dogs off the top of their head, if you're looking for specific breeds from artwork. I'm just saying. At least you offer the hint, some requesters wouldn't.",warmup/pug.jpg,dogs,NA,NA,NA,NA,NA,dogs,NA,1,1585925892048,2,NA,This is a,1,NA,These are both,great dane,NA,warmup1,NA,NA
2085,NA,redwood,NA,NA,32,warmup/bonsai.jpg,redwood or sequoia (choose one),This is a,no,2,trees,susan,NA,bonsai,NA,Please label the pictures below.,NA,NA,NA,NA,NA,"I hope most workers can identify and spell types of dogs off the top of their head, if you're looking for specific breeds from artwork. I'm just saying. At least you offer the hint, some requesters wouldn't.",warmup/sequoia.png,trees,NA,NA,NA,NA,NA,trees,NA,2,1585925892048,1,NA,This is a,1,NA,These are both,bonsai,NA,warmup1,NA,NA
2085,NA,hummingbird,NA,NA,32,warmup/eagle.png,hummingbird,This is a,no,2,birds,susan,NA,eagle,NA,Please label the pictures below.,NA,NA,NA,NA,NA,"I hope most workers can identify and spell types of dogs off the top of their head, if you're looking for specific breeds from artwork. I'm just saying. At least you offer the hint, some requesters wouldn't.",warmup/colibri.jpg,birds,NA,NA,NA,NA,NA,birds,NA,3,1585925892048,1,NA,This is an,1,NA,These are both,eagle,NA,warmup1,NA,NA
2085,What do you think your friend is saying is it big  relative to?,NA,images/redwood_sign.png,images/tree-parade-basic.png,32,NA,NA,NA,no,2,trees,susan,NA,NA,NA,Your friend goes ahead of you. You see your friend in the distance:,NA,subject,redwood,NA,trees,"I hope most workers can identify and spell types of dogs off the top of their head, if you're looking for specific breeds from artwork. I'm just saying. At least you offer the hint, some requesters wouldn't.",NA,NA,NA,NA,NA,NA,18249,NA,You and your friend walk to your friend's cabin in a park for the first time. You want to memorize the path and you see the following:,1,1585925892048,NA,It is big  relative to other,NA,1,landmark,NA,NA,NA,custom_main_text1,big,Your friend says: <br/><b>That big redwood is a landmark.</b>
2085,What do you think your friend is saying is it big  relative to?,NA,images/great-dane.png,images/dog-parade-basic2.png,32,NA,NA,NA,no,2,dogs2,susan,NA,NA,NA,Your friend goes ahead of you. You see your friend in the distance:,NA,predicate,great dane,NA,dogs,"I hope most workers can identify and spell types of dogs off the top of their head, if you're looking for specific breeds from artwork. I'm just saying. At least you offer the hint, some requesters wouldn't.",NA,NA,NA,NA,NA,NA,26244,NA,You and your friend are at a pet show and you see the following:,2,1585925892048,NA,It is big  relative to other,NA,1,prize-winner,NA,NA,NA,custom_main_text1,big,Your friend says: <br/><b>That prize-winner is a big Great Dane.</b>
2085,What do you think your friend is saying is it small  relative to?,NA,images/hummingbird.png,images/bird-parade-basic.png,32,NA,NA,NA,no,2,birds,susan,NA,NA,NA,Your friend goes ahead of you. You see your friend in the distance:,NA,subject,hummingbird,NA,birds,"I hope most workers can identify and spell types of dogs off the top of their head, if you're looking for specific breeds from artwork. I'm just saying. At least you offer the hint, some requesters wouldn't.",NA,NA,NA,NA,NA,NA,12511,NA,You visit your friend who works at an animal shelter and you see the following:,3,1585925892048,NA,It is small  relative to other,NA,1,rescue,NA,NA,NA,custom_main_text1,small,Your friend says: <br/><b>That small hummingbird is a rescue.</b>
2085,NA,chihuahua,NA,NA,32,warmup/doberman.jpg,chihuahua,This is a,no,2,dogs1,susan,NA,doberman,NA,Please label the pictures below.,NA,NA,NA,NA,NA,"I hope most workers can identify and spell types of dogs off the top of their head, if you're looking for specific breeds from artwork. I'm just saying. At least you offer the hint, some requesters wouldn't.",warmup/chihuahua.jpg,dogs,NA,NA,NA,NA,NA,dogs,NA,1,1585925892048,1,NA,This is a,1,NA,These are both,rottweiler,NA,warmup2,NA,NA
2085,NA,chihuahua,NA,NA,32,warmup/doberman.jpg,chihuahua,This is a,no,2,dogs1,susan,NA,doberman,NA,Please label the pictures below.,NA,NA,NA,NA,NA,"I hope most workers can identify and spell types of dogs off the top of their head, if you're looking for specific breeds from artwork. I'm just saying. At least you offer the hint, some requesters wouldn't.",warmup/chihuahua.jpg,dogs,NA,NA,NA,NA,NA,dogs,NA,1,1585925892048,2,NA,This is a,1,NA,These are both,doberman,NA,warmup2,NA,NA
2085,NA,dandelion,NA,NA,32,warmup/sunflower.jpg,dandelion,This is a,no,2,flowers,susan,NA,sunflower,NA,Please label the pictures below.,NA,NA,NA,NA,NA,"I hope most workers can identify and spell types of dogs off the top of their head, if you're looking for specific breeds from artwork. I'm just saying. At least you offer the hint, some requesters wouldn't.",warmup/dandelion.jpg,flowers,NA,NA,NA,NA,NA,flowers,NA,2,1585925892048,1,NA,This is a,1,NA,These are both,sunflower,NA,warmup2,NA,NA
2085,What do you think your friend is saying is it small relative to?,NA,images/chihuahua.png,images/dog-parade-basic.png,32,NA,NA,NA,no,2,dogs1,susan,NA,NA,NA,Your friend goes ahead of you. You see your friend in the distance:,NA,predicate,chihuahua,NA,dogs,"I hope most workers can identify and spell types of dogs off the top of their head, if you're looking for specific breeds from artwork. I'm just saying. At least you offer the hint, some requesters wouldn't.",NA,NA,NA,NA,NA,NA,8405,NA,You and your friend are at an animal training ground and you see the following:,1,1585925892048,NA,It is small relative to other,NA,1,service animal,NA,NA,NA,custom_main_text2,small,Your friend says: <br/><b>That service animal is a small chihuahua.</b>
2085,What do you think your friend is saying is it big  relative to?,NA,images/sunflower.png,images/flower-parade-basic.png,32,NA,NA,NA,no,2,flowers,susan,NA,NA,NA,Your friend goes ahead of you. You see your friend in the distance:,NA,predicate,sunflower,NA,flowers,"I hope most workers can identify and spell types of dogs off the top of their head, if you're looking for specific breeds from artwork. I'm just saying. At least you offer the hint, some requesters wouldn't.",NA,NA,NA,NA,NA,NA,6322,NA,You and your friend are at their garden and you see the following:,2,1585925892048,NA,It is big  relative to other,NA,1,gift,NA,NA,NA,custom_main_text2,big,Your friend says: <br/><b>That gift is a big sunflower.</b>
2084,<i>What do you think Speaker A meant? </i>,NA,NA,NA,32,NA,NA,NA,NA,2,NA,linda,1,NA,yes,NA,"<b> Speaker A: ""The Empire State Building is tall.""</b>",NA,NA,39,buildings,NA,NA,NA,graduated_high_school,comp_class_warmup,English,female,NA,NA,In the main trials you will be asked to rephrase something a person said. The utterance will contain a word that is <i>relative</i> and your task is to figure out what it is relative to. <br /> <br /> For example: <br />,1,1585925899553,1,The Empire State Building is tall relative to other,NA,1,NA,NA,NA,"buildings, skyscrapers, houses, constructions (choose one)",comp_class_warmup,NA,NA
2084,NA,humming bird,NA,NA,32,warmup/eagle.png,hummingbird,This is a,NA,2,birds,linda,NA,eagle,yes,Please label the pictures below.,NA,NA,NA,39,NA,NA,warmup/colibri.jpg,birds,graduated_high_school,NA,English,female,NA,birds,NA,1,1585925899553,1,NA,This is an,1,NA,These are both,eagle,NA,warmup1,NA,NA
2084,NA,hummingbird,NA,NA,32,warmup/eagle.png,hummingbird,This is a,NA,2,birds,linda,NA,eagle,yes,Please label the pictures below.,NA,NA,NA,39,NA,NA,warmup/colibri.jpg,birds,graduated_high_school,NA,English,female,NA,birds,NA,1,1585925899553,2,NA,This is an,1,NA,These are both,eagle,NA,warmup1,NA,NA
