submission_id,question,response1,target_picture,context_picture,experiment_id,picture2,correct1,question1,problems,enjoyment,item,botresponse,trials,correct2,understand,text,sentence,syntax,target,age,response,comments,picture1,response3,education,name,languages,sex,RT,correct3,context,trial_number,startTime,attempts,paraphrase,question3,fairprice,reference,question2,response2,correct,trial_name,adj,utterance
2135,<i>What do you think Speaker A meant? </i>,NA,NA,NA,32,NA,NA,NA,no,2,NA,susan,1,NA,yes,NA,"<b> Speaker A: ""The Empire State Building is tall.""</b>",NA,NA,51,buildings,NA,NA,NA,some_college,comp_class_warmup,English,other,NA,NA,In the main trials you will be asked to rephrase something a person said. The utterance will contain a word that is <i>relative</i> and your task is to figure out what it is relative to. <br /> <br /> For example: <br />,1,1586287124753,1,The Empire State Building is tall relative to other,NA,1,NA,NA,NA,"buildings, skyscrapers, houses, constructions (choose one)",comp_class_warmup,NA,NA
2135,NA,tall tree,NA,NA,32,warmup/bonsai.jpg,redwood or sequoia (choose one),This is a,no,2,trees,susan,NA,bonsai,yes,Please label the pictures below.,NA,NA,NA,51,NA,NA,warmup/sequoia.png,trees,some_college,NA,English,other,NA,trees,NA,1,1586287124753,1,NA,This is a,1,NA,These are both,small tree,NA,warmup1,NA,NA
2135,NA,redwood,NA,NA,32,warmup/bonsai.jpg,redwood or sequoia (choose one),This is a,no,2,trees,susan,NA,bonsai,yes,Please label the pictures below.,NA,NA,NA,51,NA,NA,warmup/sequoia.png,trees,some_college,NA,English,other,NA,trees,NA,1,1586287124753,2,NA,This is a,1,NA,These are both,bonsai,NA,warmup1,NA,NA
2135,NA,chihuahua,NA,NA,32,warmup/doberman.jpg,chihuahua,This is a,no,2,dogs1,susan,NA,doberman,yes,Please label the pictures below.,NA,NA,NA,51,NA,NA,warmup/chihuahua.jpg,dogs,some_college,NA,English,other,NA,dogs,NA,2,1586287124753,1,NA,This is a,1,NA,These are both,great dane,NA,warmup1,NA,NA
2135,NA,chihuahua,NA,NA,32,warmup/doberman.jpg,chihuahua,This is a,no,2,dogs1,susan,NA,doberman,yes,Please label the pictures below.,NA,NA,NA,51,NA,NA,warmup/chihuahua.jpg,dogs,some_college,NA,English,other,NA,dogs,NA,2,1586287124753,2,NA,This is a,1,NA,These are both,doberman,NA,warmup1,NA,NA
2135,NA,hummingbird,NA,NA,32,warmup/eagle.png,hummingbird,This is a,no,2,birds,susan,NA,eagle,yes,Please label the pictures below.,NA,NA,NA,51,NA,NA,warmup/colibri.jpg,birds,some_college,NA,English,other,NA,birds,NA,3,1586287124753,1,NA,This is an,1,NA,These are both,eagle,NA,warmup1,NA,NA
2135,What do you think your friend is saying is it small relative to?,NA,images/chihuahua.png,images/dog-parade-chihuahua.png,32,NA,NA,NA,no,2,dogs1,susan,NA,NA,yes,Your friend goes ahead of you. You see your friend in the distance:,NA,predicate,chihuahua,51,dogs,NA,NA,NA,some_college,NA,English,other,14544,NA,You and your friend are at an animal training ground and you see the following:,1,1586287124753,NA,It is small relative to other,NA,1,service animal,NA,NA,NA,custom_main_text1,small,Your friend says: <br/><b>That service animal is a small chihuahua.</b>
2135,What do you think your friend is saying is it small  relative to?,NA,images/hummingbird.png,images/bird-parade-hummingbird.png,32,NA,NA,NA,no,2,birds,susan,NA,NA,yes,Your friend goes ahead of you. You see your friend in the distance:,NA,predicate,hummingbird,51,birds,NA,NA,NA,some_college,NA,English,other,12616,NA,You visit your friend who works at an animal shelter and you see the following:,2,1586287124753,NA,It is small  relative to other,NA,1,rescue,NA,NA,NA,custom_main_text1,small,Your friend says: <br/><b>That rescue is a small hummingbird.</b>
2135,What do you think your friend is saying is it big  relative to?,NA,images/redwood_sign.png,images/tree-parade-redwood.png,32,NA,NA,NA,no,2,trees,susan,NA,NA,yes,Your friend goes ahead of you. You see your friend in the distance:,NA,subject,redwood,51,trees,NA,NA,NA,some_college,NA,English,other,13087,NA,You and your friend walk to your friend's cabin in a park for the first time. You want to memorize the path and you see the following:,3,1586287124753,NA,It is big  relative to other,NA,1,landmark,NA,NA,NA,custom_main_text1,big,Your friend says: <br/><b>That big redwood is a landmark.</b>
2135,NA,dandelion,NA,NA,32,warmup/sunflower.jpg,dandelion,This is a,no,2,flowers,susan,NA,sunflower,yes,Please label the pictures below.,NA,NA,NA,51,NA,NA,warmup/dandelion.jpg,flower,some_college,NA,English,other,NA,flowers,NA,1,1586287124753,1,NA,This is a,1,NA,These are both,sunflower,NA,warmup2,NA,NA
2135,NA,dandelion,NA,NA,32,warmup/sunflower.jpg,dandelion,This is a,no,2,flowers,susan,NA,sunflower,yes,Please label the pictures below.,NA,NA,NA,51,NA,NA,warmup/dandelion.jpg,flowers,some_college,NA,English,other,NA,flowers,NA,1,1586287124753,2,NA,This is a,1,NA,These are both,sunflower,NA,warmup2,NA,NA
2135,NA,pug,NA,NA,32,warmup/great-dane.jpg,pug,This is a,no,2,dogs2,susan,NA,great dane,yes,Please label the pictures below.,NA,NA,NA,51,NA,NA,warmup/pug.jpg,dogs,some_college,NA,English,other,NA,dogs,NA,2,1586287124753,1,NA,This is a,1,NA,These are both,doberman,NA,warmup2,NA,NA
2135,NA,pug,NA,NA,32,warmup/great-dane.jpg,pug,This is a,no,2,dogs2,susan,NA,great dane,yes,Please label the pictures below.,NA,NA,NA,51,NA,NA,warmup/pug.jpg,dogs,some_college,NA,English,other,NA,dogs,NA,2,1586287124753,2,NA,This is a,1,NA,These are both,great dane,NA,warmup2,NA,NA
2135,What do you think your friend is saying is it big  relative to?,NA,images/sunflower.png,images/flower-parade-sunflower.png,32,NA,NA,NA,no,2,flowers,susan,NA,NA,yes,Your friend goes ahead of you. You see your friend in the distance:,NA,subject,sunflower,51,flowers,NA,NA,NA,some_college,NA,English,other,10880,NA,You and your friend are at their garden and you see the following:,1,1586287124753,NA,It is big  relative to other,NA,1,gift,NA,NA,NA,custom_main_text2,big,Your friend says: <br/><b>That big sunflower is a gift.</b>
2135,What do you think your friend is saying is it small  relative to?,NA,images/pug.png,images/dog-parade-pug.png,32,NA,NA,NA,no,2,dogs2,susan,NA,NA,yes,Your friend goes ahead of you. You see your friend in the distance:,NA,predicate,pug,51,dogs,NA,NA,NA,some_college,NA,English,other,12504,NA,You and your friend are at a pet show and you see the following:,2,1586287124753,NA,It is small  relative to other,NA,1,prize-winner,NA,NA,NA,custom_main_text2,small,Your friend says: <br/><b>That prize-winner is a small pug.</b>
2134,<i>What do you think Speaker A meant? </i>,NA,NA,NA,32,NA,NA,NA,no,1,NA,mary,1,NA,NA,NA,"<b> Speaker A: ""The Empire State Building is tall.""</b>",NA,NA,50,buildings,none,NA,NA,graduated_college,comp_class_warmup,English,other,NA,NA,In the main trials you will be asked to rephrase something a person said. The utterance will contain a word that is <i>relative</i> and your task is to figure out what it is relative to. <br /> <br /> For example: <br />,1,1586284623970,1,The Empire State Building is tall relative to other,NA,2.5,NA,NA,NA,"buildings, skyscrapers, houses, constructions (choose one)",comp_class_warmup,NA,NA
2134,NA,pug,NA,NA,32,warmup/great-dane.jpg,pug,This is a,no,1,dogs2,mary,NA,great dane,NA,Please label the pictures below.,NA,NA,NA,50,NA,none,warmup/pug.jpg,dogs,graduated_college,NA,English,other,NA,dogs,NA,1,1586284623970,1,NA,This is a,2.5,NA,These are both,great dane,NA,warmup1,NA,NA
2134,NA,chihuahua,NA,NA,32,warmup/doberman.jpg,chihuahua,This is a,no,1,dogs1,mary,NA,doberman,NA,Please label the pictures below.,NA,NA,NA,50,NA,none,warmup/chihuahua.jpg,dogs,graduated_college,NA,English,other,NA,dogs,NA,2,1586284623970,1,NA,This is a,2.5,NA,These are both,doberman,NA,warmup1,NA,NA
2134,NA,hummingbird,NA,NA,32,warmup/eagle.png,hummingbird,This is a,no,1,birds,mary,NA,eagle,NA,Please label the pictures below.,NA,NA,NA,50,NA,none,warmup/colibri.jpg,birds,graduated_college,NA,English,other,NA,birds,NA,3,1586284623970,1,NA,This is an,2.5,NA,These are both,eagle,NA,warmup1,NA,NA
2134,What do you think your friend is saying is it small  relative to?,NA,images/hummingbird.png,images/bird-parade-hummingbird.png,32,NA,NA,NA,no,1,birds,mary,NA,NA,NA,Your friend goes ahead of you. You see your friend in the distance:,NA,predicate,hummingbird,50,birds,none,NA,NA,graduated_college,NA,English,other,17905,NA,You visit your friend who works at an animal shelter and you see the following:,1,1586284623970,NA,It is small  relative to other,NA,2.5,rescue,NA,NA,NA,custom_main_text1,small,Your friend says: <br/><b>That rescue is a small hummingbird.</b>
2134,What do you think your friend is saying is it small relative to?,NA,images/chihuahua.png,images/dog-parade-chihuahua.png,32,NA,NA,NA,no,1,dogs1,mary,NA,NA,NA,Your friend goes ahead of you. You see your friend in the distance:,NA,subject,chihuahua,50,dogs,none,NA,NA,graduated_college,NA,English,other,13065,NA,You and your friend are at an animal training ground and you see the following:,2,1586284623970,NA,It is small relative to other,NA,2.5,service animal,NA,NA,NA,custom_main_text1,small,Your friend says: <br/><b>That small chihuahua is a service animal.</b>
2134,What do you think your friend is saying is it big  relative to?,NA,images/great-dane.png,images/dog-parade-great-dane.png,32,NA,NA,NA,no,1,dogs2,mary,NA,NA,NA,Your friend goes ahead of you. You see your friend in the distance:,NA,subject,great dane,50,dogs,none,NA,NA,graduated_college,NA,English,other,12661,NA,You and your friend are at a pet show and you see the following:,3,1586284623970,NA,It is big  relative to other,NA,2.5,prize-winner,NA,NA,NA,custom_main_text1,big,Your friend says: <br/><b>That big Great Dane is a prize-winner.</b>
2134,NA,dandelion,NA,NA,32,warmup/sunflower.jpg,dandelion,This is a,no,1,flowers,mary,NA,sunflower,NA,Please label the pictures below.,NA,NA,NA,50,NA,none,warmup/dandelion.jpg,plants,graduated_college,NA,English,other,NA,flowers,NA,1,1586284623970,1,NA,This is a,2.5,NA,These are both,sunflower,NA,warmup2,NA,NA
2134,NA,dandelion,NA,NA,32,warmup/sunflower.jpg,dandelion,This is a,no,1,flowers,mary,NA,sunflower,NA,Please label the pictures below.,NA,NA,NA,50,NA,none,warmup/dandelion.jpg,flowers,graduated_college,NA,English,other,NA,flowers,NA,1,1586284623970,2,NA,This is a,2.5,NA,These are both,sunflower,NA,warmup2,NA,NA
2134,NA,large tree,NA,NA,32,warmup/bonsai.jpg,redwood or sequoia (choose one),This is a,no,1,trees,mary,NA,bonsai,NA,Please label the pictures below.,NA,NA,NA,50,NA,none,warmup/sequoia.png,trees,graduated_college,NA,English,other,NA,trees,NA,2,1586284623970,1,NA,This is a,2.5,NA,These are both,bonsai,NA,warmup2,NA,NA
2134,NA,redwood,NA,NA,32,warmup/bonsai.jpg,redwood or sequoia (choose one),This is a,no,1,trees,mary,NA,bonsai,NA,Please label the pictures below.,NA,NA,NA,50,NA,none,warmup/sequoia.png,trees,graduated_college,NA,English,other,NA,trees,NA,2,1586284623970,2,NA,This is a,2.5,NA,These are both,bonsai,NA,warmup2,NA,NA
2134,What do you think your friend is saying is it big  relative to?,NA,images/sunflower.png,images/flower-parade-sunflower.png,32,NA,NA,NA,no,1,flowers,mary,NA,NA,NA,Your friend goes ahead of you. You see your friend in the distance:,NA,subject,sunflower,50,flowers,none,NA,NA,graduated_college,NA,English,other,12030,NA,You and your friend are at their garden and you see the following:,1,1586284623970,NA,It is big  relative to other,NA,2.5,gift,NA,NA,NA,custom_main_text2,big,Your friend says: <br/><b>That big sunflower is a gift.</b>
2134,What do you think your friend is saying is it small  relative to?,NA,images/bonsai_stick.png,images/tree-parade-bonsai.png,32,NA,NA,NA,no,1,trees,mary,NA,NA,NA,Your friend goes ahead of you. You see your friend in the distance:,NA,predicate,bonsai,50,trees,none,NA,NA,graduated_college,NA,English,other,11423,NA,You and your friend walk to your friend's cabin in a park for the first time. You want to memorize the path and you see the following:,2,1586284623970,NA,It is small  relative to other,NA,2.5,landmark,NA,NA,NA,custom_main_text2,small,Your friend says: <br/><b>That landmark is a small bonsai.</b>
2133,<i>What do you think Speaker A meant? </i>,NA,NA,NA,32,NA,NA,NA,No,1,NA,mary,1,NA,yes,NA,"<b> Speaker A: ""The Empire State Building is tall.""</b>",NA,NA,32,buildings,Not at this time thanks!,NA,NA,some_college,comp_class_warmup,English,female,NA,NA,In the main trials you will be asked to rephrase something a person said. The utterance will contain a word that is <i>relative</i> and your task is to figure out what it is relative to. <br /> <br /> For example: <br />,1,1586284295423,1,The Empire State Building is tall relative to other,NA,1,NA,NA,NA,"buildings, skyscrapers, houses, constructions (choose one)",comp_class_warmup,NA,NA
2133,NA,weed,NA,NA,32,warmup/sunflower.jpg,dandelion,This is a,No,1,flowers,mary,NA,sunflower,yes,Please label the pictures below.,NA,NA,NA,32,NA,Not at this time thanks!,warmup/dandelion.jpg,flowers,some_college,NA,English,female,NA,flowers,NA,1,1586284295423,1,NA,This is a,1,NA,These are both,sunflower,NA,warmup1,NA,NA
2133,NA,dandelion,NA,NA,32,warmup/sunflower.jpg,dandelion,This is a,No,1,flowers,mary,NA,sunflower,yes,Please label the pictures below.,NA,NA,NA,32,NA,Not at this time thanks!,warmup/dandelion.jpg,flowers,some_college,NA,English,female,NA,flowers,NA,1,1586284295423,2,NA,This is a,1,NA,These are both,sunflower,NA,warmup1,NA,NA
2133,NA,chichuaua,NA,NA,32,warmup/doberman.jpg,chihuahua,This is a,No,1,dogs1,mary,NA,doberman,yes,Please label the pictures below.,NA,NA,NA,32,NA,Not at this time thanks!,warmup/chihuahua.jpg,dogs,some_college,NA,English,female,NA,dogs,NA,2,1586284295423,1,NA,This is a,1,NA,These are both,doberman,NA,warmup1,NA,NA
2133,NA,chichuaua,NA,NA,32,warmup/doberman.jpg,chihuahua,This is a,No,1,dogs1,mary,NA,doberman,yes,Please label the pictures below.,NA,NA,NA,32,NA,Not at this time thanks!,warmup/chihuahua.jpg,dogs,some_college,NA,English,female,NA,dogs,NA,2,1586284295423,2,NA,This is a,1,NA,These are both,doberman,NA,warmup1,NA,NA
2133,NA,chichuaua,NA,NA,32,warmup/doberman.jpg,chihuahua,This is a,No,1,dogs1,mary,NA,doberman,yes,Please label the pictures below.,NA,NA,NA,32,NA,Not at this time thanks!,warmup/chihuahua.jpg,dogs,some_college,NA,English,female,NA,dogs,NA,2,1586284295423,3,NA,This is a,1,NA,These are both,doberman,NA,warmup1,NA,NA
2133,NA,chihuahua,NA,NA,32,warmup/doberman.jpg,chihuahua,This is a,No,1,dogs1,mary,NA,doberman,yes,Please label the pictures below.,NA,NA,NA,32,NA,Not at this time thanks!,warmup/chihuahua.jpg,dogs,some_college,NA,English,female,NA,dogs,NA,2,1586284295423,4,NA,This is a,1,NA,These are both,doberman,NA,warmup1,NA,NA
2133,NA,hummingbird,NA,NA,32,warmup/eagle.png,hummingbird,This is a,No,1,birds,mary,NA,eagle,yes,Please label the pictures below.,NA,NA,NA,32,NA,Not at this time thanks!,warmup/colibri.jpg,birds,some_college,NA,English,female,NA,birds,NA,3,1586284295423,1,NA,This is an,1,NA,These are both,eagle,NA,warmup1,NA,NA
2133,What do you think your friend is saying is it big relative to?,NA,images/doberman.png,images/dog-parade-doberman.png,32,NA,NA,NA,No,1,dogs1,mary,NA,NA,yes,Your friend goes ahead of you. You see your friend in the distance:,NA,predicate,doberman,32,dogs,Not at this time thanks!,NA,NA,some_college,NA,English,female,11903,NA,You and your friend are at an animal training ground and you see the following:,1,1586284295423,NA,It is big relative to other,NA,1,service animal,NA,NA,NA,custom_main_text1,big,Your friend says: <br/><b>That service animal is a big doberman.</b>
2133,What do you think your friend is saying is it small  relative to?,NA,images/hummingbird.png,images/bird-parade-hummingbird.png,32,NA,NA,NA,No,1,birds,mary,NA,NA,yes,Your friend goes ahead of you. You see your friend in the distance:,NA,predicate,hummingbird,32,birds,Not at this time thanks!,NA,NA,some_college,NA,English,female,9090,NA,You visit your friend who works at an animal shelter and you see the following:,2,1586284295423,NA,It is small  relative to other,NA,1,rescue,NA,NA,NA,custom_main_text1,small,Your friend says: <br/><b>That rescue is a small hummingbird.</b>
2133,What do you think your friend is saying is it big  relative to?,NA,images/sunflower.png,images/flower-parade-sunflower.png,32,NA,NA,NA,No,1,flowers,mary,NA,NA,yes,Your friend goes ahead of you. You see your friend in the distance:,NA,subject,sunflower,32,flowers,Not at this time thanks!,NA,NA,some_college,NA,English,female,8673,NA,You and your friend are at their garden and you see the following:,3,1586284295423,NA,It is big  relative to other,NA,1,gift,NA,NA,NA,custom_main_text1,big,Your friend says: <br/><b>That big sunflower is a gift.</b>
2133,NA,pug,NA,NA,32,warmup/great-dane.jpg,pug,This is a,No,1,dogs2,mary,NA,great dane,yes,Please label the pictures below.,NA,NA,NA,32,NA,Not at this time thanks!,warmup/pug.jpg,dogs,some_college,NA,English,female,NA,dogs,NA,1,1586284295423,1,NA,This is a,1,NA,These are both,great dane,NA,warmup2,NA,NA
2133,NA,redwood,NA,NA,32,warmup/bonsai.jpg,redwood or sequoia (choose one),This is a,No,1,trees,mary,NA,bonsai,yes,Please label the pictures below.,NA,NA,NA,32,NA,Not at this time thanks!,warmup/sequoia.png,tree,some_college,NA,English,female,NA,trees,NA,2,1586284295423,1,NA,This is a,1,NA,These are both,bonsai,NA,warmup2,NA,NA
2133,NA,redwood,NA,NA,32,warmup/bonsai.jpg,redwood or sequoia (choose one),This is a,No,1,trees,mary,NA,bonsai,yes,Please label the pictures below.,NA,NA,NA,32,NA,Not at this time thanks!,warmup/sequoia.png,trees,some_college,NA,English,female,NA,trees,NA,2,1586284295423,2,NA,This is a,1,NA,These are both,bonsai,NA,warmup2,NA,NA
2133,What do you think your friend is saying is it small  relative to?,NA,images/pug.png,images/dog-parade-pug.png,32,NA,NA,NA,No,1,dogs2,mary,NA,NA,yes,Your friend goes ahead of you. You see your friend in the distance:,NA,subject,pug,32,pugs,Not at this time thanks!,NA,NA,some_college,NA,English,female,18315,NA,You and your friend are at a pet show and you see the following:,1,1586284295423,NA,It is small  relative to other,NA,1,prize-winner,NA,NA,NA,custom_main_text2,small,Your friend says: <br/><b>That small pug is a prize-winner.</b>
2133,What do you think your friend is saying is it big  relative to?,NA,images/redwood_sign.png,images/tree-parade-redwood.png,32,NA,NA,NA,No,1,trees,mary,NA,NA,yes,Your friend goes ahead of you. You see your friend in the distance:,NA,subject,redwood,32,trees,Not at this time thanks!,NA,NA,some_college,NA,English,female,5074,NA,You and your friend walk to your friend's cabin in a park for the first time. You want to memorize the path and you see the following:,2,1586284295423,NA,It is big  relative to other,NA,1,landmark,NA,NA,NA,custom_main_text2,big,Your friend says: <br/><b>That big redwood is a landmark.</b>
2132,<i>What do you think Speaker A meant? </i>,NA,NA,NA,32,NA,NA,NA,na,2,NA,jennifer,1,NA,yes,NA,"<b> Speaker A: ""The Empire State Building is tall.""</b>",NA,NA,28,building,good,NA,NA,graduated_college,comp_class_warmup,English,male,NA,NA,In the main trials you will be asked to rephrase something a person said. The utterance will contain a word that is <i>relative</i> and your task is to figure out what it is relative to. <br /> <br /> For example: <br />,1,1586282813967,1,The Empire State Building is tall relative to other,NA,1,NA,NA,NA,"buildings, skyscrapers, houses, constructions (choose one)",comp_class_warmup,NA,NA
2132,NA,dog,NA,NA,32,warmup/doberman.jpg,chihuahua,This is a,na,2,dogs1,jennifer,NA,doberman,yes,Please label the pictures below.,NA,NA,NA,28,NA,good,warmup/chihuahua.jpg,dogs,graduated_college,NA,English,male,NA,dogs,NA,1,1586282813967,1,NA,This is a,1,NA,These are both,dobberman,NA,warmup1,NA,NA
2132,NA,chihuahua,NA,NA,32,warmup/doberman.jpg,chihuahua,This is a,na,2,dogs1,jennifer,NA,doberman,yes,Please label the pictures below.,NA,NA,NA,28,NA,good,warmup/chihuahua.jpg,dogs,graduated_college,NA,English,male,NA,dogs,NA,1,1586282813967,2,NA,This is a,1,NA,These are both,doberman,NA,warmup1,NA,NA
2132,NA,tree,NA,NA,32,warmup/bonsai.jpg,redwood or sequoia (choose one),This is a,na,2,trees,jennifer,NA,bonsai,yes,Please label the pictures below.,NA,NA,NA,28,NA,good,warmup/sequoia.png,trees,graduated_college,NA,English,male,NA,trees,NA,2,1586282813967,1,NA,This is a,1,NA,These are both,plant,NA,warmup1,NA,NA
2132,NA,redwood,NA,NA,32,warmup/bonsai.jpg,redwood or sequoia (choose one),This is a,na,2,trees,jennifer,NA,bonsai,yes,Please label the pictures below.,NA,NA,NA,28,NA,good,warmup/sequoia.png,trees,graduated_college,NA,English,male,NA,trees,NA,2,1586282813967,2,NA,This is a,1,NA,These are both,bonsai,NA,warmup1,NA,NA
2132,NA,hummingbird,NA,NA,32,warmup/eagle.png,hummingbird,This is a,na,2,birds,jennifer,NA,eagle,yes,Please label the pictures below.,NA,NA,NA,28,NA,good,warmup/colibri.jpg,birds,graduated_college,NA,English,male,NA,birds,NA,3,1586282813967,1,NA,This is an,1,NA,These are both,eagle,NA,warmup1,NA,NA
2132,What do you think your friend is saying is it big  relative to?,NA,images/redwood_sign.png,images/tree-parade-redwood.png,32,NA,NA,NA,na,2,trees,jennifer,NA,NA,yes,Your friend goes ahead of you. You see your friend in the distance:,NA,subject,redwood,28,tree,good,NA,NA,graduated_college,NA,English,male,11684,NA,You and your friend walk to your friend's cabin in a park for the first time. You want to memorize the path and you see the following:,1,1586282813967,NA,It is big  relative to other,NA,1,landmark,NA,NA,NA,custom_main_text1,big,Your friend says: <br/><b>That big redwood is a landmark.</b>
2132,What do you think your friend is saying is it big relative to?,NA,images/doberman.png,images/dog-parade-doberman.png,32,NA,NA,NA,na,2,dogs1,jennifer,NA,NA,yes,Your friend goes ahead of you. You see your friend in the distance:,NA,predicate,doberman,28,dogs,good,NA,NA,graduated_college,NA,English,male,9799,NA,You and your friend are at an animal training ground and you see the following:,2,1586282813967,NA,It is big relative to other,NA,1,service animal,NA,NA,NA,custom_main_text1,big,Your friend says: <br/><b>That service animal is a big doberman.</b>
2132,What do you think your friend is saying is it big  relative to?,NA,images/eagle.png,images/bird-parade-eagle.png,32,NA,NA,NA,na,2,birds,jennifer,NA,NA,yes,Your friend goes ahead of you. You see your friend in the distance:,NA,predicate,eagle,28,birds,good,NA,NA,graduated_college,NA,English,male,7321,NA,You visit your friend who works at an animal shelter and you see the following:,3,1586282813967,NA,It is big  relative to other,NA,1,rescue,NA,NA,NA,custom_main_text1,big,Your friend says: <br/><b>That rescue is a big eagle.</b>
2132,NA,dog,NA,NA,32,warmup/great-dane.jpg,pug,This is a,na,2,dogs2,jennifer,NA,great dane,yes,Please label the pictures below.,NA,NA,NA,28,NA,good,warmup/pug.jpg,dogs,graduated_college,NA,English,male,NA,dogs,NA,1,1586282813967,1,NA,This is a,1,NA,These are both,dog,NA,warmup2,NA,NA
2132,NA,pug,NA,NA,32,warmup/great-dane.jpg,pug,This is a,na,2,dogs2,jennifer,NA,great dane,yes,Please label the pictures below.,NA,NA,NA,28,NA,good,warmup/pug.jpg,dogs,graduated_college,NA,English,male,NA,dogs,NA,1,1586282813967,2,NA,This is a,1,NA,These are both,great dane,NA,warmup2,NA,NA
2132,NA,flower,NA,NA,32,warmup/sunflower.jpg,dandelion,This is a,na,2,flowers,jennifer,NA,sunflower,yes,Please label the pictures below.,NA,NA,NA,28,NA,good,warmup/dandelion.jpg,flowers,graduated_college,NA,English,male,NA,flowers,NA,2,1586282813967,1,NA,This is a,1,NA,These are both,sun flower,NA,warmup2,NA,NA
2132,NA,dandelion,NA,NA,32,warmup/sunflower.jpg,dandelion,This is a,na,2,flowers,jennifer,NA,sunflower,yes,Please label the pictures below.,NA,NA,NA,28,NA,good,warmup/dandelion.jpg,flowers,graduated_college,NA,English,male,NA,flowers,NA,2,1586282813967,2,NA,This is a,1,NA,These are both,sunflower,NA,warmup2,NA,NA
2132,What do you think your friend is saying is it small  relative to?,NA,images/pug.png,images/dog-parade-pug.png,32,NA,NA,NA,na,2,dogs2,jennifer,NA,NA,yes,Your friend goes ahead of you. You see your friend in the distance:,NA,subject,pug,28,dog,good,NA,NA,graduated_college,NA,English,male,11347,NA,You and your friend are at a pet show and you see the following:,1,1586282813967,NA,It is small  relative to other,NA,1,prize-winner,NA,NA,NA,custom_main_text2,small,Your friend says: <br/><b>That small pug is a prize-winner.</b>
2132,What do you think your friend is saying is it small  relative to?,NA,images/dandelion.png,images/flower-parade-dandelion.png,32,NA,NA,NA,na,2,flowers,jennifer,NA,NA,yes,Your friend goes ahead of you. You see your friend in the distance:,NA,subject,dandelion,28,flower,good,NA,NA,graduated_college,NA,English,male,16131,NA,You and your friend are at their garden and you see the following:,2,1586282813967,NA,It is small  relative to other,NA,1,gift,NA,NA,NA,custom_main_text2,small,Your friend says: <br/><b>That small dandelion is a gift.</b>
2131,<i>What do you think Speaker A meant? </i>,NA,NA,NA,32,NA,NA,NA,No,2,NA,patricia,1,NA,yes,NA,"<b> Speaker A: ""The Empire State Building is tall.""</b>",NA,NA,32,buildings,Nice,NA,NA,graduated_college,comp_class_warmup,English,female,NA,NA,In the main trials you will be asked to rephrase something a person said. The utterance will contain a word that is <i>relative</i> and your task is to figure out what it is relative to. <br /> <br /> For example: <br />,1,1586290070043,1,The Empire State Building is tall relative to other,NA,1,NA,NA,NA,"buildings, skyscrapers, houses, constructions (choose one)",comp_class_warmup,NA,NA
2131,NA,pug,NA,NA,32,warmup/great-dane.jpg,pug,This is a,No,2,dogs2,patricia,NA,great dane,yes,Please label the pictures below.,NA,NA,NA,32,NA,Nice,warmup/pug.jpg,dog,graduated_college,NA,English,female,NA,dogs,NA,1,1586290070043,1,NA,This is a,1,NA,These are both,great dane,NA,warmup1,NA,NA
2131,NA,pug,NA,NA,32,warmup/great-dane.jpg,pug,This is a,No,2,dogs2,patricia,NA,great dane,yes,Please label the pictures below.,NA,NA,NA,32,NA,Nice,warmup/pug.jpg,dogs,graduated_college,NA,English,female,NA,dogs,NA,1,1586290070043,2,NA,This is a,1,NA,These are both,great dane,NA,warmup1,NA,NA
2131,NA,tree,NA,NA,32,warmup/bonsai.jpg,redwood or sequoia (choose one),This is a,No,2,trees,patricia,NA,bonsai,yes,Please label the pictures below.,NA,NA,NA,32,NA,Nice,warmup/sequoia.png,plants,graduated_college,NA,English,female,NA,trees,NA,2,1586290070043,1,NA,This is a,1,NA,These are both,plant,NA,warmup1,NA,NA
2131,NA,redwood,NA,NA,32,warmup/bonsai.jpg,redwood or sequoia (choose one),This is a,No,2,trees,patricia,NA,bonsai,yes,Please label the pictures below.,NA,NA,NA,32,NA,Nice,warmup/sequoia.png,trees,graduated_college,NA,English,female,NA,trees,NA,2,1586290070043,2,NA,This is a,1,NA,These are both,bonsai,NA,warmup1,NA,NA
2131,NA,chihuahua,NA,NA,32,warmup/doberman.jpg,chihuahua,This is a,No,2,dogs1,patricia,NA,doberman,yes,Please label the pictures below.,NA,NA,NA,32,NA,Nice,warmup/chihuahua.jpg,dogs,graduated_college,NA,English,female,NA,dogs,NA,3,1586290070043,1,NA,This is a,1,NA,These are both,Doberman Pinscher,NA,warmup1,NA,NA
2131,NA,chihuahua,NA,NA,32,warmup/doberman.jpg,chihuahua,This is a,No,2,dogs1,patricia,NA,doberman,yes,Please label the pictures below.,NA,NA,NA,32,NA,Nice,warmup/chihuahua.jpg,dogs,graduated_college,NA,English,female,NA,dogs,NA,3,1586290070043,2,NA,This is a,1,NA,These are both,Doberman,NA,warmup1,NA,NA
2131,What do you think your friend is saying is it big relative to?,NA,images/doberman.png,images/dog-parade-doberman.png,32,NA,NA,NA,No,2,dogs1,patricia,NA,NA,yes,Your friend goes ahead of you. You see your friend in the distance:,NA,predicate,doberman,32,dogs,Nice,NA,NA,graduated_college,NA,English,female,82695,NA,You and your friend are at an animal training ground and you see the following:,1,1586290070043,NA,It is big relative to other,NA,1,service animal,NA,NA,NA,custom_main_text1,big,Your friend says: <br/><b>That service animal is a big doberman.</b>
2131,What do you think your friend is saying is it big  relative to?,NA,images/redwood_sign.png,images/tree-parade-redwood.png,32,NA,NA,NA,No,2,trees,patricia,NA,NA,yes,Your friend goes ahead of you. You see your friend in the distance:,NA,subject,redwood,32,trees,Nice,NA,NA,graduated_college,NA,English,female,12433,NA,You and your friend walk to your friend's cabin in a park for the first time. You want to memorize the path and you see the following:,2,1586290070043,NA,It is big  relative to other,NA,1,landmark,NA,NA,NA,custom_main_text1,big,Your friend says: <br/><b>That big redwood is a landmark.</b>
2131,What do you think your friend is saying is it small  relative to?,NA,images/pug.png,images/dog-parade-pug.png,32,NA,NA,NA,No,2,dogs2,patricia,NA,NA,yes,Your friend goes ahead of you. You see your friend in the distance:,NA,subject,pug,32,dogs,Nice,NA,NA,graduated_college,NA,English,female,176773,NA,You and your friend are at a pet show and you see the following:,3,1586290070043,NA,It is small  relative to other,NA,1,prize-winner,NA,NA,NA,custom_main_text1,small,Your friend says: <br/><b>That small pug is a prize-winner.</b>
2131,NA,hummingbird,NA,NA,32,warmup/eagle.png,hummingbird,This is a,No,2,birds,patricia,NA,eagle,yes,Please label the pictures below.,NA,NA,NA,32,NA,Nice,warmup/colibri.jpg,birds,graduated_college,NA,English,female,NA,birds,NA,1,1586290070043,1,NA,This is an,1,NA,These are both,eagle,NA,warmup2,NA,NA
2131,NA,Dandelion,NA,NA,32,warmup/sunflower.jpg,dandelion,This is a,No,2,flowers,patricia,NA,sunflower,yes,Please label the pictures below.,NA,NA,NA,32,NA,Nice,warmup/dandelion.jpg,flowers,graduated_college,NA,English,female,NA,flowers,NA,2,1586290070043,1,NA,This is a,1,NA,These are both,sunflower,NA,warmup2,NA,NA
2131,What do you think your friend is saying is it small  relative to?,NA,images/hummingbird.png,images/bird-parade-hummingbird.png,32,NA,NA,NA,No,2,birds,patricia,NA,NA,yes,Your friend goes ahead of you. You see your friend in the distance:,NA,subject,hummingbird,32,birds,Nice,NA,NA,graduated_college,NA,English,female,12504,NA,You visit your friend who works at an animal shelter and you see the following:,1,1586290070043,NA,It is small  relative to other,NA,1,rescue,NA,NA,NA,custom_main_text2,small,Your friend says: <br/><b>That small hummingbird is a rescue.</b>
2131,What do you think your friend is saying is it small  relative to?,NA,images/dandelion.png,images/flower-parade-dandelion.png,32,NA,NA,NA,No,2,flowers,patricia,NA,NA,yes,Your friend goes ahead of you. You see your friend in the distance:,NA,predicate,dandelion,32,flowers,Nice,NA,NA,graduated_college,NA,English,female,14528,NA,You and your friend are at their garden and you see the following:,2,1586290070043,NA,It is small  relative to other,NA,1,gift,NA,NA,NA,custom_main_text2,small,Your friend says: <br/><b>That gift is a small dandelion.</b>
2130,<i>What do you think Speaker A meant? </i>,NA,NA,NA,32,NA,NA,NA,NA,2,NA,sarah,1,NA,yes,NA,"<b> Speaker A: ""The Empire State Building is tall.""</b>",NA,NA,30,buildings,NA,NA,NA,some_college,comp_class_warmup,English,male,NA,NA,In the main trials you will be asked to rephrase something a person said. The utterance will contain a word that is <i>relative</i> and your task is to figure out what it is relative to. <br /> <br /> For example: <br />,1,1586282714463,1,The Empire State Building is tall relative to other,NA,1.3,NA,NA,NA,"buildings, skyscrapers, houses, constructions (choose one)",comp_class_warmup,NA,NA
2130,NA,dandelion,NA,NA,32,warmup/sunflower.jpg,dandelion,This is a,NA,2,flowers,sarah,NA,sunflower,yes,Please label the pictures below.,NA,NA,NA,30,NA,NA,warmup/dandelion.jpg,flowers,some_college,NA,English,male,NA,flowers,NA,1,1586282714463,1,NA,This is a,1.3,NA,These are both,sunflower,NA,warmup1,NA,NA
2130,NA,hummingbird,NA,NA,32,warmup/eagle.png,hummingbird,This is a,NA,2,birds,sarah,NA,eagle,yes,Please label the pictures below.,NA,NA,NA,30,NA,NA,warmup/colibri.jpg,birds,some_college,NA,English,male,NA,birds,NA,2,1586282714463,1,NA,This is an,1.3,NA,These are both,eagle,NA,warmup1,NA,NA
2130,NA,chihuahua,NA,NA,32,warmup/doberman.jpg,chihuahua,This is a,NA,2,dogs1,sarah,NA,doberman,yes,Please label the pictures below.,NA,NA,NA,30,NA,NA,warmup/chihuahua.jpg,dogs,some_college,NA,English,male,NA,dogs,NA,3,1586282714463,1,NA,This is a,1.3,NA,These are both,doberman,NA,warmup1,NA,NA
2130,What do you think your friend is saying is it small  relative to?,NA,images/hummingbird.png,images/bird-parade-hummingbird.png,32,NA,NA,NA,NA,2,birds,sarah,NA,NA,yes,Your friend goes ahead of you. You see your friend in the distance:,NA,subject,hummingbird,30,birds,NA,NA,NA,some_college,NA,English,male,18867,NA,You visit your friend who works at an animal shelter and you see the following:,1,1586282714463,NA,It is small  relative to other,NA,1.3,rescue,NA,NA,NA,custom_main_text1,small,Your friend says: <br/><b>That small hummingbird is a rescue.</b>
2130,What do you think your friend is saying is it small relative to?,NA,images/chihuahua.png,images/dog-parade-chihuahua.png,32,NA,NA,NA,NA,2,dogs1,sarah,NA,NA,yes,Your friend goes ahead of you. You see your friend in the distance:,NA,subject,chihuahua,30,dogs,NA,NA,NA,some_college,NA,English,male,35200,NA,You and your friend are at an animal training ground and you see the following:,2,1586282714463,NA,It is small relative to other,NA,1.3,service animal,NA,NA,NA,custom_main_text1,small,Your friend says: <br/><b>That small chihuahua is a service animal.</b>
2130,What do you think your friend is saying is it big  relative to?,NA,images/sunflower.png,images/flower-parade-sunflower.png,32,NA,NA,NA,NA,2,flowers,sarah,NA,NA,yes,Your friend goes ahead of you. You see your friend in the distance:,NA,predicate,sunflower,30,flowers,NA,NA,NA,some_college,NA,English,male,6921,NA,You and your friend are at their garden and you see the following:,3,1586282714463,NA,It is big  relative to other,NA,1.3,gift,NA,NA,NA,custom_main_text1,big,Your friend says: <br/><b>That gift is a big sunflower.</b>
2130,NA,pug,NA,NA,32,warmup/great-dane.jpg,pug,This is a,NA,2,dogs2,sarah,NA,great dane,yes,Please label the pictures below.,NA,NA,NA,30,NA,NA,warmup/pug.jpg,dogs,some_college,NA,English,male,NA,dogs,NA,1,1586282714463,1,NA,This is a,1.3,NA,These are both,great dane,NA,warmup2,NA,NA
2130,NA,sequoia,NA,NA,32,warmup/bonsai.jpg,redwood or sequoia (choose one),This is a,NA,2,trees,sarah,NA,bonsai,yes,Please label the pictures below.,NA,NA,NA,30,NA,NA,warmup/sequoia.png,trees,some_college,NA,English,male,NA,trees,NA,2,1586282714463,1,NA,This is a,1.3,NA,These are both,bonsai,NA,warmup2,NA,NA
2130,What do you think your friend is saying is it big  relative to?,NA,images/redwood_sign.png,images/tree-parade-redwood.png,32,NA,NA,NA,NA,2,trees,sarah,NA,NA,yes,Your friend goes ahead of you. You see your friend in the distance:,NA,predicate,redwood,30,trees,NA,NA,NA,some_college,NA,English,male,21141,NA,You and your friend walk to your friend's cabin in a park for the first time. You want to memorize the path and you see the following:,1,1586282714463,NA,It is big  relative to other,NA,1.3,landmark,NA,NA,NA,custom_main_text2,big,Your friend says: <br/><b>That landmark is a big redwood.</b>
2130,What do you think your friend is saying is it big  relative to?,NA,images/great-dane.png,images/dog-parade-great-dane.png,32,NA,NA,NA,NA,2,dogs2,sarah,NA,NA,yes,Your friend goes ahead of you. You see your friend in the distance:,NA,subject,great dane,30,dogs,NA,NA,NA,some_college,NA,English,male,6634,NA,You and your friend are at a pet show and you see the following:,2,1586282714463,NA,It is big  relative to other,NA,1.3,prize-winner,NA,NA,NA,custom_main_text2,big,Your friend says: <br/><b>That big Great Dane is a prize-winner.</b>
2129,<i>What do you think Speaker A meant? </i>,NA,NA,NA,32,NA,NA,NA,None,1,NA,susan,1,NA,NA,NA,"<b> Speaker A: ""The Empire State Building is tall.""</b>",NA,NA,NA,buildings,NA,NA,NA,NA,comp_class_warmup,English,NA,NA,NA,In the main trials you will be asked to rephrase something a person said. The utterance will contain a word that is <i>relative</i> and your task is to figure out what it is relative to. <br /> <br /> For example: <br />,1,1586282769640,1,The Empire State Building is tall relative to other,NA,0.8,NA,NA,NA,"buildings, skyscrapers, houses, constructions (choose one)",comp_class_warmup,NA,NA
2129,NA,dandalion,NA,NA,32,warmup/sunflower.jpg,dandelion,This is a,None,1,flowers,susan,NA,sunflower,NA,Please label the pictures below.,NA,NA,NA,NA,NA,NA,warmup/dandelion.jpg,plants,NA,NA,English,NA,NA,flowers,NA,1,1586282769640,1,NA,This is a,0.8,NA,These are both,sunflower,NA,warmup1,NA,NA
2129,NA,dandelion,NA,NA,32,warmup/sunflower.jpg,dandelion,This is a,None,1,flowers,susan,NA,sunflower,NA,Please label the pictures below.,NA,NA,NA,NA,NA,NA,warmup/dandelion.jpg,flowers,NA,NA,English,NA,NA,flowers,NA,1,1586282769640,2,NA,This is a,0.8,NA,These are both,sunflower,NA,warmup1,NA,NA
2129,NA,hummingbird,NA,NA,32,warmup/eagle.png,hummingbird,This is a,None,1,birds,susan,NA,eagle,NA,Please label the pictures below.,NA,NA,NA,NA,NA,NA,warmup/colibri.jpg,birds,NA,NA,English,NA,NA,birds,NA,2,1586282769640,1,NA,This is an,0.8,NA,These are both,eagle,NA,warmup1,NA,NA
2129,NA,tree,NA,NA,32,warmup/bonsai.jpg,redwood or sequoia (choose one),This is a,None,1,trees,susan,NA,bonsai,NA,Please label the pictures below.,NA,NA,NA,NA,NA,NA,warmup/sequoia.png,trees\ntrees,NA,NA,English,NA,NA,trees,NA,3,1586282769640,1,NA,This is a,0.8,NA,These are both,twig,NA,warmup1,NA,NA
2129,NA,redwood,NA,NA,32,warmup/bonsai.jpg,redwood or sequoia (choose one),This is a,None,1,trees,susan,NA,bonsai,NA,Please label the pictures below.,NA,NA,NA,NA,NA,NA,warmup/sequoia.png,trees\ntrees,NA,NA,English,NA,NA,trees,NA,3,1586282769640,2,NA,This is a,0.8,NA,These are both,bonsai,NA,warmup1,NA,NA
2129,NA,redwood,NA,NA,32,warmup/bonsai.jpg,redwood or sequoia (choose one),This is a,None,1,trees,susan,NA,bonsai,NA,Please label the pictures below.,NA,NA,NA,NA,NA,NA,warmup/sequoia.png,trees\ntrees,NA,NA,English,NA,NA,trees,NA,3,1586282769640,3,NA,This is a,0.8,NA,These are both,bonsai,NA,warmup1,NA,NA
2129,NA,redwood,NA,NA,32,warmup/bonsai.jpg,redwood or sequoia (choose one),This is a,None,1,trees,susan,NA,bonsai,NA,Please label the pictures below.,NA,NA,NA,NA,NA,NA,warmup/sequoia.png,trees\ntrees,NA,NA,English,NA,NA,trees,NA,3,1586282769640,4,NA,This is a,0.8,NA,These are both,bonsai,NA,warmup1,NA,NA
2129,NA,redwood,NA,NA,32,warmup/bonsai.jpg,redwood or sequoia (choose one),This is a,None,1,trees,susan,NA,bonsai,NA,Please label the pictures below.,NA,NA,NA,NA,NA,NA,warmup/sequoia.png,trees\ntrees,NA,NA,English,NA,NA,trees,NA,3,1586282769640,5,NA,This is a,0.8,NA,These are both,bonsai,NA,warmup1,NA,NA
2129,NA,redwood,NA,NA,32,warmup/bonsai.jpg,redwood or sequoia (choose one),This is a,None,1,trees,susan,NA,bonsai,NA,Please label the pictures below.,NA,NA,NA,NA,NA,NA,warmup/sequoia.png,trees\ntrees\ntrees,NA,NA,English,NA,NA,trees,NA,3,1586282769640,6,NA,This is a,0.8,NA,These are both,bonsai,NA,warmup1,NA,NA
2129,NA,redwood,NA,NA,32,warmup/bonsai.jpg,redwood or sequoia (choose one),This is a,None,1,trees,susan,NA,bonsai,NA,Please label the pictures below.,NA,NA,NA,NA,NA,NA,warmup/sequoia.png,trees,NA,NA,English,NA,NA,trees,NA,3,1586282769640,7,NA,This is a,0.8,NA,These are both,bonsai,NA,warmup1,NA,NA
2129,What do you think your friend is saying is it big  relative to?,NA,images/eagle.png,images/bird-parade-eagle.png,32,NA,NA,NA,None,1,birds,susan,NA,NA,NA,Your friend goes ahead of you. You see your friend in the distance:,NA,predicate,eagle,NA,eagles,NA,NA,NA,NA,NA,English,NA,17006,NA,You visit your friend who works at an animal shelter and you see the following:,1,1586282769640,NA,It is big  relative to other,NA,0.8,rescue,NA,NA,NA,custom_main_text1,big,Your friend says: <br/><b>That rescue is a big eagle.</b>
2129,What do you think your friend is saying is it small  relative to?,NA,images/bonsai_stick.png,images/tree-parade-bonsai.png,32,NA,NA,NA,None,1,trees,susan,NA,NA,NA,Your friend goes ahead of you. You see your friend in the distance:,NA,predicate,bonsai,NA,trees,NA,NA,NA,NA,NA,English,NA,16398,NA,You and your friend walk to your friend's cabin in a park for the first time. You want to memorize the path and you see the following:,2,1586282769640,NA,It is small  relative to other,NA,0.8,landmark,NA,NA,NA,custom_main_text1,small,Your friend says: <br/><b>That landmark is a small bonsai.</b>
2129,What do you think your friend is saying is it big  relative to?,NA,images/sunflower.png,images/flower-parade-sunflower.png,32,NA,NA,NA,None,1,flowers,susan,NA,NA,NA,Your friend goes ahead of you. You see your friend in the distance:,NA,subject,sunflower,NA,flowers,NA,NA,NA,NA,NA,English,NA,12999,NA,You and your friend are at their garden and you see the following:,3,1586282769640,NA,It is big  relative to other,NA,0.8,gift,NA,NA,NA,custom_main_text1,big,Your friend says: <br/><b>That big sunflower is a gift.</b>
2129,NA,pug,NA,NA,32,warmup/great-dane.jpg,pug,This is a,None,1,dogs2,susan,NA,great dane,NA,Please label the pictures below.,NA,NA,NA,NA,NA,NA,warmup/pug.jpg,dogs,NA,NA,English,NA,NA,dogs,NA,1,1586282769640,1,NA,This is a,0.8,NA,These are both,great dane,NA,warmup2,NA,NA
2129,NA,Chihuahua,NA,NA,32,warmup/doberman.jpg,chihuahua,This is a,None,1,dogs1,susan,NA,doberman,NA,Please label the pictures below.,NA,NA,NA,NA,NA,NA,warmup/chihuahua.jpg,dogs,NA,NA,English,NA,NA,dogs,NA,2,1586282769640,1,NA,This is a,0.8,NA,These are both,doberman,NA,warmup2,NA,NA
2129,What do you think your friend is saying is it small relative to?,NA,images/chihuahua.png,images/dog-parade-chihuahua.png,32,NA,NA,NA,None,1,dogs1,susan,NA,NA,NA,Your friend goes ahead of you. You see your friend in the distance:,NA,subject,chihuahua,NA,dogs,NA,NA,NA,NA,NA,English,NA,12510,NA,You and your friend are at an animal training ground and you see the following:,1,1586282769640,NA,It is small relative to other,NA,0.8,service animal,NA,NA,NA,custom_main_text2,small,Your friend says: <br/><b>That small chihuahua is a service animal.</b>
2129,What do you think your friend is saying is it small  relative to?,NA,images/pug.png,images/dog-parade-pug.png,32,NA,NA,NA,None,1,dogs2,susan,NA,NA,NA,Your friend goes ahead of you. You see your friend in the distance:,NA,predicate,pug,NA,pugs,NA,NA,NA,NA,NA,English,NA,11662,NA,You and your friend are at a pet show and you see the following:,2,1586282769640,NA,It is small  relative to other,NA,0.8,prize-winner,NA,NA,NA,custom_main_text2,small,Your friend says: <br/><b>That prize-winner is a small pug.</b>
2128,<i>What do you think Speaker A meant? </i>,NA,NA,NA,32,NA,NA,NA,None,2,NA,elizabeth,1,NA,yes,NA,"<b> Speaker A: ""The Empire State Building is tall.""</b>",NA,NA,37,building,Thanks for the opportunity to participate!,NA,NA,graduated_high_school,comp_class_warmup,english,male,NA,NA,In the main trials you will be asked to rephrase something a person said. The utterance will contain a word that is <i>relative</i> and your task is to figure out what it is relative to. <br /> <br /> For example: <br />,1,1586282087475,1,The Empire State Building is tall relative to other,NA,1,NA,NA,NA,"buildings, skyscrapers, houses, constructions (choose one)",comp_class_warmup,NA,NA
2128,NA,chihuahua,NA,NA,32,warmup/doberman.jpg,chihuahua,This is a,None,2,dogs1,elizabeth,NA,doberman,yes,Please label the pictures below.,NA,NA,NA,37,NA,Thanks for the opportunity to participate!,warmup/chihuahua.jpg,dogs,graduated_high_school,NA,english,male,NA,dogs,NA,1,1586282087475,1,NA,This is a,1,NA,These are both,great dane,NA,warmup1,NA,NA
2128,NA,chihuahua,NA,NA,32,warmup/doberman.jpg,chihuahua,This is a,None,2,dogs1,elizabeth,NA,doberman,yes,Please label the pictures below.,NA,NA,NA,37,NA,Thanks for the opportunity to participate!,warmup/chihuahua.jpg,dogs,graduated_high_school,NA,english,male,NA,dogs,NA,1,1586282087475,2,NA,This is a,1,NA,These are both,doberman,NA,warmup1,NA,NA
2128,NA,hummingbird,NA,NA,32,warmup/eagle.png,hummingbird,This is a,None,2,birds,elizabeth,NA,eagle,yes,Please label the pictures below.,NA,NA,NA,37,NA,Thanks for the opportunity to participate!,warmup/colibri.jpg,birds,graduated_high_school,NA,english,male,NA,birds,NA,2,1586282087475,1,NA,This is an,1,NA,These are both,eagle,NA,warmup1,NA,NA
2128,NA,tree,NA,NA,32,warmup/bonsai.jpg,redwood or sequoia (choose one),This is a,None,2,trees,elizabeth,NA,bonsai,yes,Please label the pictures below.,NA,NA,NA,37,NA,Thanks for the opportunity to participate!,warmup/sequoia.png,trees,graduated_high_school,NA,english,male,NA,trees,NA,3,1586282087475,1,NA,This is a,1,NA,These are both,tree,NA,warmup1,NA,NA
2128,NA,redwood,NA,NA,32,warmup/bonsai.jpg,redwood or sequoia (choose one),This is a,None,2,trees,elizabeth,NA,bonsai,yes,Please label the pictures below.,NA,NA,NA,37,NA,Thanks for the opportunity to participate!,warmup/sequoia.png,trees,graduated_high_school,NA,english,male,NA,trees,NA,3,1586282087475,2,NA,This is a,1,NA,These are both,bonsai,NA,warmup1,NA,NA
2128,What do you think your friend is saying is it small relative to?,NA,images/chihuahua.png,images/dog-parade-chihuahua.png,32,NA,NA,NA,None,2,dogs1,elizabeth,NA,NA,yes,Your friend goes ahead of you. You see your friend in the distance:,NA,predicate,chihuahua,37,dogs,Thanks for the opportunity to participate!,NA,NA,graduated_high_school,NA,english,male,14351,NA,You and your friend are at an animal training ground and you see the following:,1,1586282087475,NA,It is small relative to other,NA,1,service animal,NA,NA,NA,custom_main_text1,small,Your friend says: <br/><b>That service animal is a small chihuahua.</b>
2128,What do you think your friend is saying is it big  relative to?,NA,images/eagle.png,images/bird-parade-eagle.png,32,NA,NA,NA,None,2,birds,elizabeth,NA,NA,yes,Your friend goes ahead of you. You see your friend in the distance:,NA,subject,eagle,37,eagles,Thanks for the opportunity to participate!,NA,NA,graduated_high_school,NA,english,male,17401,NA,You visit your friend who works at an animal shelter and you see the following:,2,1586282087475,NA,It is big  relative to other,NA,1,rescue,NA,NA,NA,custom_main_text1,big,Your friend says: <br/><b>That big eagle is a rescue.</b>
2128,What do you think your friend is saying is it small  relative to?,NA,images/bonsai_stick.png,images/tree-parade-bonsai.png,32,NA,NA,NA,None,2,trees,elizabeth,NA,NA,yes,Your friend goes ahead of you. You see your friend in the distance:,NA,subject,bonsai,37,bonsai,Thanks for the opportunity to participate!,NA,NA,graduated_high_school,NA,english,male,16562,NA,You and your friend walk to your friend's cabin in a park for the first time. You want to memorize the path and you see the following:,3,1586282087475,NA,It is small  relative to other,NA,1,landmark,NA,NA,NA,custom_main_text1,small,Your friend says: <br/><b>That small bonsai is a landmark.</b>
2128,NA,pug,NA,NA,32,warmup/great-dane.jpg,pug,This is a,None,2,dogs2,elizabeth,NA,great dane,yes,Please label the pictures below.,NA,NA,NA,37,NA,Thanks for the opportunity to participate!,warmup/pug.jpg,dogs,graduated_high_school,NA,english,male,NA,dogs,NA,1,1586282087475,1,NA,This is a,1,NA,These are both,doberman,NA,warmup2,NA,NA
2128,NA,pug,NA,NA,32,warmup/great-dane.jpg,pug,This is a,None,2,dogs2,elizabeth,NA,great dane,yes,Please label the pictures below.,NA,NA,NA,37,NA,Thanks for the opportunity to participate!,warmup/pug.jpg,dogs,graduated_high_school,NA,english,male,NA,dogs,NA,1,1586282087475,2,NA,This is a,1,NA,These are both,great dane,NA,warmup2,NA,NA
2128,NA,dandelion,NA,NA,32,warmup/sunflower.jpg,dandelion,This is a,None,2,flowers,elizabeth,NA,sunflower,yes,Please label the pictures below.,NA,NA,NA,37,NA,Thanks for the opportunity to participate!,warmup/dandelion.jpg,flowers,graduated_high_school,NA,english,male,NA,flowers,NA,2,1586282087475,1,NA,This is a,1,NA,These are both,sunflower,NA,warmup2,NA,NA
2128,What do you think your friend is saying is it big  relative to?,NA,images/sunflower.png,images/flower-parade-sunflower.png,32,NA,NA,NA,None,2,flowers,elizabeth,NA,NA,yes,Your friend goes ahead of you. You see your friend in the distance:,NA,predicate,sunflower,37,sunflowers,Thanks for the opportunity to participate!,NA,NA,graduated_high_school,NA,english,male,11032,NA,You and your friend are at their garden and you see the following:,1,1586282087475,NA,It is big  relative to other,NA,1,gift,NA,NA,NA,custom_main_text2,big,Your friend says: <br/><b>That gift is a big sunflower.</b>
2128,What do you think your friend is saying is it big  relative to?,NA,images/great-dane.png,images/dog-parade-great-dane.png,32,NA,NA,NA,None,2,dogs2,elizabeth,NA,NA,yes,Your friend goes ahead of you. You see your friend in the distance:,NA,subject,great dane,37,dogs,Thanks for the opportunity to participate!,NA,NA,graduated_high_school,NA,english,male,13345,NA,You and your friend are at a pet show and you see the following:,2,1586282087475,NA,It is big  relative to other,NA,1,prize-winner,NA,NA,NA,custom_main_text2,big,Your friend says: <br/><b>That big Great Dane is a prize-winner.</b>
2127,<i>What do you think Speaker A meant? </i>,NA,NA,NA,32,NA,NA,NA,No issues,1,NA,barbara,1,NA,yes,NA,"<b> Speaker A: ""The Empire State Building is tall.""</b>",NA,NA,39,buildings,NA,NA,NA,graduated_college,comp_class_warmup,English,male,NA,NA,In the main trials you will be asked to rephrase something a person said. The utterance will contain a word that is <i>relative</i> and your task is to figure out what it is relative to. <br /> <br /> For example: <br />,1,1586282075406,1,The Empire State Building is tall relative to other,NA,1,NA,NA,NA,"buildings, skyscrapers, houses, constructions (choose one)",comp_class_warmup,NA,NA
2127,NA,dog,NA,NA,32,warmup/doberman.jpg,chihuahua,This is a,No issues,1,dogs1,barbara,NA,doberman,yes,Please label the pictures below.,NA,NA,NA,39,NA,NA,warmup/chihuahua.jpg,dogs,graduated_college,NA,English,male,NA,dogs,NA,1,1586282075406,1,NA,This is a,1,NA,These are both,dog,NA,warmup1,NA,NA
2127,NA,chihuahua,NA,NA,32,warmup/doberman.jpg,chihuahua,This is a,No issues,1,dogs1,barbara,NA,doberman,yes,Please label the pictures below.,NA,NA,NA,39,NA,NA,warmup/chihuahua.jpg,dogs,graduated_college,NA,English,male,NA,dogs,NA,1,1586282075406,2,NA,This is a,1,NA,These are both,doberman,NA,warmup1,NA,NA
2127,NA,hummingbird,NA,NA,32,warmup/eagle.png,hummingbird,This is a,No issues,1,birds,barbara,NA,eagle,yes,Please label the pictures below.,NA,NA,NA,39,NA,NA,warmup/colibri.jpg,birds,graduated_college,NA,English,male,NA,birds,NA,2,1586282075406,1,NA,This is an,1,NA,These are both,eagle,NA,warmup1,NA,NA
2127,NA,pug,NA,NA,32,warmup/great-dane.jpg,pug,This is a,No issues,1,dogs2,barbara,NA,great dane,yes,Please label the pictures below.,NA,NA,NA,39,NA,NA,warmup/pug.jpg,dogs,graduated_college,NA,English,male,NA,dogs,NA,3,1586282075406,1,NA,This is a,1,NA,These are both,doberman,NA,warmup1,NA,NA
2127,NA,pug,NA,NA,32,warmup/great-dane.jpg,pug,This is a,No issues,1,dogs2,barbara,NA,great dane,yes,Please label the pictures below.,NA,NA,NA,39,NA,NA,warmup/pug.jpg,dogs,graduated_college,NA,English,male,NA,dogs,NA,3,1586282075406,2,NA,This is a,1,NA,These are both,great dane,NA,warmup1,NA,NA
2127,What do you think your friend is saying is it big relative to?,NA,images/doberman.png,images/dog-parade-doberman.png,32,NA,NA,NA,No issues,1,dogs1,barbara,NA,NA,yes,Your friend goes ahead of you. You see your friend in the distance:,NA,predicate,doberman,39,doberman,NA,NA,NA,graduated_college,NA,English,male,10213,NA,You and your friend are at an animal training ground and you see the following:,1,1586282075406,NA,It is big relative to other,NA,1,service animal,NA,NA,NA,custom_main_text1,big,Your friend says: <br/><b>That service animal is a big doberman.</b>
2127,What do you think your friend is saying is it small  relative to?,NA,images/hummingbird.png,images/bird-parade-hummingbird.png,32,NA,NA,NA,No issues,1,birds,barbara,NA,NA,yes,Your friend goes ahead of you. You see your friend in the distance:,NA,predicate,hummingbird,39,hummingbirds,NA,NA,NA,graduated_college,NA,English,male,7497,NA,You visit your friend who works at an animal shelter and you see the following:,2,1586282075406,NA,It is small  relative to other,NA,1,rescue,NA,NA,NA,custom_main_text1,small,Your friend says: <br/><b>That rescue is a small hummingbird.</b>
2127,What do you think your friend is saying is it big  relative to?,NA,images/great-dane.png,images/dog-parade-great-dane.png,32,NA,NA,NA,No issues,1,dogs2,barbara,NA,NA,yes,Your friend goes ahead of you. You see your friend in the distance:,NA,subject,great dane,39,great danes,NA,NA,NA,graduated_college,NA,English,male,6100,NA,You and your friend are at a pet show and you see the following:,3,1586282075406,NA,It is big  relative to other,NA,1,prize-winner,NA,NA,NA,custom_main_text1,big,Your friend says: <br/><b>That big Great Dane is a prize-winner.</b>
2127,NA,dandelion,NA,NA,32,warmup/sunflower.jpg,dandelion,This is a,No issues,1,flowers,barbara,NA,sunflower,yes,Please label the pictures below.,NA,NA,NA,39,NA,NA,warmup/dandelion.jpg,flowers,graduated_college,NA,English,male,NA,flowers,NA,1,1586282075406,1,NA,This is a,1,NA,These are both,sunflower,NA,warmup2,NA,NA
2127,NA,spruce,NA,NA,32,warmup/bonsai.jpg,redwood or sequoia (choose one),This is a,No issues,1,trees,barbara,NA,bonsai,yes,Please label the pictures below.,NA,NA,NA,39,NA,NA,warmup/sequoia.png,trees,graduated_college,NA,English,male,NA,trees,NA,2,1586282075406,1,NA,This is a,1,NA,These are both,bonzai,NA,warmup2,NA,NA
2127,NA,redwood,NA,NA,32,warmup/bonsai.jpg,redwood or sequoia (choose one),This is a,No issues,1,trees,barbara,NA,bonsai,yes,Please label the pictures below.,NA,NA,NA,39,NA,NA,warmup/sequoia.png,trees,graduated_college,NA,English,male,NA,trees,NA,2,1586282075406,2,NA,This is a,1,NA,These are both,bonsai,NA,warmup2,NA,NA
2127,What do you think your friend is saying is it small  relative to?,NA,images/dandelion.png,images/flower-parade-dandelion.png,32,NA,NA,NA,No issues,1,flowers,barbara,NA,NA,yes,Your friend goes ahead of you. You see your friend in the distance:,NA,subject,dandelion,39,flowers,NA,NA,NA,graduated_college,NA,English,male,5854,NA,You and your friend are at their garden and you see the following:,1,1586282075406,NA,It is small  relative to other,NA,1,gift,NA,NA,NA,custom_main_text2,small,Your friend says: <br/><b>That small dandelion is a gift.</b>
2127,What do you think your friend is saying is it small  relative to?,NA,images/bonsai_stick.png,images/tree-parade-bonsai.png,32,NA,NA,NA,No issues,1,trees,barbara,NA,NA,yes,Your friend goes ahead of you. You see your friend in the distance:,NA,subject,bonsai,39,trees,NA,NA,NA,graduated_college,NA,English,male,6229,NA,You and your friend walk to your friend's cabin in a park for the first time. You want to memorize the path and you see the following:,2,1586282075406,NA,It is small  relative to other,NA,1,landmark,NA,NA,NA,custom_main_text2,small,Your friend says: <br/><b>That small bonsai is a landmark.</b>
2126,<i>What do you think Speaker A meant? </i>,NA,NA,NA,32,NA,NA,NA,NA,1,NA,jennifer,1,NA,NA,NA,"<b> Speaker A: ""The Empire State Building is tall.""</b>",NA,NA,NA,"yes,The Empire State Building is tall relative to other",NA,NA,NA,graduated_college,comp_class_warmup,english,NA,NA,NA,In the main trials you will be asked to rephrase something a person said. The utterance will contain a word that is <i>relative</i> and your task is to figure out what it is relative to. <br /> <br /> For example: <br />,1,1586281279962,1,The Empire State Building is tall relative to other,NA,NA,NA,NA,NA,"buildings, skyscrapers, houses, constructions (choose one)",comp_class_warmup,NA,NA
2126,<i>What do you think Speaker A meant? </i>,NA,NA,NA,32,NA,NA,NA,NA,1,NA,jennifer,1,NA,NA,NA,"<b> Speaker A: ""The Empire State Building is tall.""</b>",NA,NA,NA,buildings,NA,NA,NA,graduated_college,comp_class_warmup,english,NA,NA,NA,In the main trials you will be asked to rephrase something a person said. The utterance will contain a word that is <i>relative</i> and your task is to figure out what it is relative to. <br /> <br /> For example: <br />,1,1586281279962,2,The Empire State Building is tall relative to other,NA,NA,NA,NA,NA,"buildings, skyscrapers, houses, constructions (choose one)",comp_class_warmup,NA,NA
2126,NA,dog,NA,NA,32,warmup/great-dane.jpg,pug,This is a,NA,1,dogs2,jennifer,NA,great dane,NA,Please label the pictures below.,NA,NA,NA,NA,NA,NA,warmup/pug.jpg,dogs,graduated_college,NA,english,NA,NA,dogs,NA,1,1586281279962,1,NA,This is a,NA,NA,These are both,dog,NA,warmup1,NA,NA
2126,NA,pug,NA,NA,32,warmup/great-dane.jpg,pug,This is a,NA,1,dogs2,jennifer,NA,great dane,NA,Please label the pictures below.,NA,NA,NA,NA,NA,NA,warmup/pug.jpg,dogs,graduated_college,NA,english,NA,NA,dogs,NA,1,1586281279962,2,NA,This is a,NA,NA,These are both,great dane,NA,warmup1,NA,NA
2126,NA,tree,NA,NA,32,warmup/bonsai.jpg,redwood or sequoia (choose one),This is a,NA,1,trees,jennifer,NA,bonsai,NA,Please label the pictures below.,NA,NA,NA,NA,NA,NA,warmup/sequoia.png,tree,graduated_college,NA,english,NA,NA,trees,NA,2,1586281279962,1,NA,This is a,NA,NA,These are both,tree,NA,warmup1,NA,NA
2126,NA,redwood,NA,NA,32,warmup/bonsai.jpg,redwood or sequoia (choose one),This is a,NA,1,trees,jennifer,NA,bonsai,NA,Please label the pictures below.,NA,NA,NA,NA,NA,NA,warmup/sequoia.png,trees,graduated_college,NA,english,NA,NA,trees,NA,2,1586281279962,2,NA,This is a,NA,NA,These are both,bonsai,NA,warmup1,NA,NA
2126,NA,kingfisher,NA,NA,32,warmup/eagle.png,hummingbird,This is a,NA,1,birds,jennifer,NA,eagle,NA,Please label the pictures below.,NA,NA,NA,NA,NA,NA,warmup/colibri.jpg,brids,graduated_college,NA,english,NA,NA,birds,NA,3,1586281279962,1,NA,This is an,NA,NA,These are both,eagle,NA,warmup1,NA,NA
2126,NA,hummingbird,NA,NA,32,warmup/eagle.png,hummingbird,This is a,NA,1,birds,jennifer,NA,eagle,NA,Please label the pictures below.,NA,NA,NA,NA,NA,NA,warmup/colibri.jpg,birds,graduated_college,NA,english,NA,NA,birds,NA,3,1586281279962,2,NA,This is an,NA,NA,These are both,eagle,NA,warmup1,NA,NA
2126,What do you think your friend is saying is it small  relative to?,NA,images/pug.png,images/dog-parade-pug.png,32,NA,NA,NA,NA,1,dogs2,jennifer,NA,NA,NA,Your friend goes ahead of you. You see your friend in the distance:,NA,subject,pug,NA,pug,NA,NA,NA,graduated_college,NA,english,NA,22987,NA,You and your friend are at a pet show and you see the following:,1,1586281279962,NA,It is small  relative to other,NA,NA,prize-winner,NA,NA,NA,custom_main_text1,small,Your friend says: <br/><b>That small pug is a prize-winner.</b>
2126,What do you think your friend is saying is it small  relative to?,NA,images/bonsai_stick.png,images/tree-parade-bonsai.png,32,NA,NA,NA,NA,1,trees,jennifer,NA,NA,NA,Your friend goes ahead of you. You see your friend in the distance:,NA,subject,bonsai,NA,bonsai,NA,NA,NA,graduated_college,NA,english,NA,32223,NA,You and your friend walk to your friend's cabin in a park for the first time. You want to memorize the path and you see the following:,2,1586281279962,NA,It is small  relative to other,NA,NA,landmark,NA,NA,NA,custom_main_text1,small,Your friend says: <br/><b>That small bonsai is a landmark.</b>
2126,What do you think your friend is saying is it big  relative to?,NA,images/eagle.png,images/bird-parade-eagle.png,32,NA,NA,NA,NA,1,birds,jennifer,NA,NA,NA,Your friend goes ahead of you. You see your friend in the distance:,NA,predicate,eagle,NA,eagle,NA,NA,NA,graduated_college,NA,english,NA,20346,NA,You visit your friend who works at an animal shelter and you see the following:,3,1586281279962,NA,It is big  relative to other,NA,NA,rescue,NA,NA,NA,custom_main_text1,big,Your friend says: <br/><b>That rescue is a big eagle.</b>
2126,NA,flower,NA,NA,32,warmup/sunflower.jpg,dandelion,This is a,NA,1,flowers,jennifer,NA,sunflower,NA,Please label the pictures below.,NA,NA,NA,NA,NA,NA,warmup/dandelion.jpg,flowers,graduated_college,NA,english,NA,NA,flowers,NA,1,1586281279962,1,NA,This is a,NA,NA,These are both,sunflower,NA,warmup2,NA,NA
2126,NA,dandelion,NA,NA,32,warmup/sunflower.jpg,dandelion,This is a,NA,1,flowers,jennifer,NA,sunflower,NA,Please label the pictures below.,NA,NA,NA,NA,NA,NA,warmup/dandelion.jpg,flowers,graduated_college,NA,english,NA,NA,flowers,NA,1,1586281279962,2,NA,This is a,NA,NA,These are both,sunflower,NA,warmup2,NA,NA
2126,NA,dog,NA,NA,32,warmup/doberman.jpg,chihuahua,This is a,NA,1,dogs1,jennifer,NA,doberman,NA,Please label the pictures below.,NA,NA,NA,NA,NA,NA,warmup/chihuahua.jpg,dog,graduated_college,NA,english,NA,NA,dogs,NA,2,1586281279962,1,NA,This is a,NA,NA,These are both,dog,NA,warmup2,NA,NA
2126,NA,chihuahua,NA,NA,32,warmup/doberman.jpg,chihuahua,This is a,NA,1,dogs1,jennifer,NA,doberman,NA,Please label the pictures below.,NA,NA,NA,NA,NA,NA,warmup/chihuahua.jpg,dogs,graduated_college,NA,english,NA,NA,dogs,NA,2,1586281279962,2,NA,This is a,NA,NA,These are both,doberman,NA,warmup2,NA,NA
2126,What do you think your friend is saying is it big  relative to?,NA,images/sunflower.png,images/flower-parade-sunflower.png,32,NA,NA,NA,NA,1,flowers,jennifer,NA,NA,NA,Your friend goes ahead of you. You see your friend in the distance:,NA,predicate,sunflower,NA,sunflower,NA,NA,NA,graduated_college,NA,english,NA,11735,NA,You and your friend are at their garden and you see the following:,1,1586281279962,NA,It is big  relative to other,NA,NA,gift,NA,NA,NA,custom_main_text2,big,Your friend says: <br/><b>That gift is a big sunflower.</b>
2126,What do you think your friend is saying is it small relative to?,NA,images/chihuahua.png,images/dog-parade-chihuahua.png,32,NA,NA,NA,NA,1,dogs1,jennifer,NA,NA,NA,Your friend goes ahead of you. You see your friend in the distance:,NA,predicate,chihuahua,NA,chihuahua,NA,NA,NA,graduated_college,NA,english,NA,9668,NA,You and your friend are at an animal training ground and you see the following:,2,1586281279962,NA,It is small relative to other,NA,NA,service animal,NA,NA,NA,custom_main_text2,small,Your friend says: <br/><b>That service animal is a small chihuahua.</b>
2125,<i>What do you think Speaker A meant? </i>,NA,NA,NA,32,NA,NA,NA,no,2,NA,susan,1,NA,yes,NA,"<b> Speaker A: ""The Empire State Building is tall.""</b>",NA,NA,68,buildings,NA,NA,NA,graduated_high_school,comp_class_warmup,english,female,NA,NA,In the main trials you will be asked to rephrase something a person said. The utterance will contain a word that is <i>relative</i> and your task is to figure out what it is relative to. <br /> <br /> For example: <br />,1,1586281524865,1,The Empire State Building is tall relative to other,NA,1,NA,NA,NA,"buildings, skyscrapers, houses, constructions (choose one)",comp_class_warmup,NA,NA
2125,NA,chihuahua,NA,NA,32,warmup/doberman.jpg,chihuahua,This is a,no,2,dogs1,susan,NA,doberman,yes,Please label the pictures below.,NA,NA,NA,68,NA,NA,warmup/chihuahua.jpg,dogs,graduated_high_school,NA,english,female,NA,dogs,NA,1,1586281524865,1,NA,This is a,1,NA,These are both,great dane,NA,warmup1,NA,NA
2125,NA,chihuahua,NA,NA,32,warmup/doberman.jpg,chihuahua,This is a,no,2,dogs1,susan,NA,doberman,yes,Please label the pictures below.,NA,NA,NA,68,NA,NA,warmup/chihuahua.jpg,dogs,graduated_high_school,NA,english,female,NA,dogs,NA,1,1586281524865,2,NA,This is a,1,NA,These are both,doberman,NA,warmup1,NA,NA
2125,NA,hummingbird,NA,NA,32,warmup/eagle.png,hummingbird,This is a,no,2,birds,susan,NA,eagle,yes,Please label the pictures below.,NA,NA,NA,68,NA,NA,warmup/colibri.jpg,birds,graduated_high_school,NA,english,female,NA,birds,NA,2,1586281524865,1,NA,This is an,1,NA,These are both,eagle,NA,warmup1,NA,NA
2125,NA,redwood,NA,NA,32,warmup/bonsai.jpg,redwood or sequoia (choose one),This is a,no,2,trees,susan,NA,bonsai,yes,Please label the pictures below.,NA,NA,NA,68,NA,NA,warmup/sequoia.png,trees,graduated_high_school,NA,english,female,NA,trees,NA,3,1586281524865,1,NA,This is a,1,NA,These are both,bonsai,NA,warmup1,NA,NA
2125,What do you think your friend is saying is it small relative to?,NA,images/chihuahua.png,images/dog-parade-chihuahua.png,32,NA,NA,NA,no,2,dogs1,susan,NA,NA,yes,Your friend goes ahead of you. You see your friend in the distance:,NA,predicate,chihuahua,68,chihuahuas,NA,NA,NA,graduated_high_school,NA,english,female,24054,NA,You and your friend are at an animal training ground and you see the following:,1,1586281524865,NA,It is small relative to other,NA,1,service animal,NA,NA,NA,custom_main_text1,small,Your friend says: <br/><b>That service animal is a small chihuahua.</b>
2125,What do you think your friend is saying is it big  relative to?,NA,images/redwood_sign.png,images/tree-parade-redwood.png,32,NA,NA,NA,no,2,trees,susan,NA,NA,yes,Your friend goes ahead of you. You see your friend in the distance:,NA,predicate,redwood,68,redwoods,NA,NA,NA,graduated_high_school,NA,english,female,30708,NA,You and your friend walk to your friend's cabin in a park for the first time. You want to memorize the path and you see the following:,2,1586281524865,NA,It is big  relative to other,NA,1,landmark,NA,NA,NA,custom_main_text1,big,Your friend says: <br/><b>That landmark is a big redwood.</b>
2125,What do you think your friend is saying is it small  relative to?,NA,images/hummingbird.png,images/bird-parade-hummingbird.png,32,NA,NA,NA,no,2,birds,susan,NA,NA,yes,Your friend goes ahead of you. You see your friend in the distance:,NA,subject,hummingbird,68,birds,NA,NA,NA,graduated_high_school,NA,english,female,17591,NA,You visit your friend who works at an animal shelter and you see the following:,3,1586281524865,NA,It is small  relative to other,NA,1,rescue,NA,NA,NA,custom_main_text1,small,Your friend says: <br/><b>That small hummingbird is a rescue.</b>
2125,NA,dandelion,NA,NA,32,warmup/sunflower.jpg,dandelion,This is a,no,2,flowers,susan,NA,sunflower,yes,Please label the pictures below.,NA,NA,NA,68,NA,NA,warmup/dandelion.jpg,flowers,graduated_high_school,NA,english,female,NA,flowers,NA,1,1586281524865,1,NA,This is a,1,NA,These are both,sunflower,NA,warmup2,NA,NA
2125,NA,bulldog,NA,NA,32,warmup/great-dane.jpg,pug,This is a,no,2,dogs2,susan,NA,great dane,yes,Please label the pictures below.,NA,NA,NA,68,NA,NA,warmup/pug.jpg,dogs,graduated_high_school,NA,english,female,NA,dogs,NA,2,1586281524865,1,NA,This is a,1,NA,These are both,doberman,NA,warmup2,NA,NA
2125,NA,bulldog,NA,NA,32,warmup/great-dane.jpg,pug,This is a,no,2,dogs2,susan,NA,great dane,yes,Please label the pictures below.,NA,NA,NA,68,NA,NA,warmup/pug.jpg,dogs,graduated_high_school,NA,english,female,NA,dogs,NA,2,1586281524865,2,NA,This is a,1,NA,These are both,great dane,NA,warmup2,NA,NA
2125,NA,bulldog,NA,NA,32,warmup/great-dane.jpg,pug,This is a,no,2,dogs2,susan,NA,great dane,yes,Please label the pictures below.,NA,NA,NA,68,NA,NA,warmup/pug.jpg,dogs,graduated_high_school,NA,english,female,NA,dogs,NA,2,1586281524865,3,NA,This is a,1,NA,These are both,great dane,NA,warmup2,NA,NA
2125,NA,pug,NA,NA,32,warmup/great-dane.jpg,pug,This is a,no,2,dogs2,susan,NA,great dane,yes,Please label the pictures below.,NA,NA,NA,68,NA,NA,warmup/pug.jpg,dogs,graduated_high_school,NA,english,female,NA,dogs,NA,2,1586281524865,4,NA,This is a,1,NA,These are both,great dane,NA,warmup2,NA,NA
2125,What do you think your friend is saying is it small  relative to?,NA,images/dandelion.png,images/flower-parade-dandelion.png,32,NA,NA,NA,no,2,flowers,susan,NA,NA,yes,Your friend goes ahead of you. You see your friend in the distance:,NA,predicate,dandelion,68,flowers,NA,NA,NA,graduated_high_school,NA,english,female,17971,NA,You and your friend are at their garden and you see the following:,1,1586281524865,NA,It is small  relative to other,NA,1,gift,NA,NA,NA,custom_main_text2,small,Your friend says: <br/><b>That gift is a small dandelion.</b>
2125,What do you think your friend is saying is it big  relative to?,NA,images/great-dane.png,images/dog-parade-great-dane.png,32,NA,NA,NA,no,2,dogs2,susan,NA,NA,yes,Your friend goes ahead of you. You see your friend in the distance:,NA,subject,great dane,68,dogs,NA,NA,NA,graduated_high_school,NA,english,female,12274,NA,You and your friend are at a pet show and you see the following:,2,1586281524865,NA,It is big  relative to other,NA,1,prize-winner,NA,NA,NA,custom_main_text2,big,Your friend says: <br/><b>That big Great Dane is a prize-winner.</b>
2124,<i>What do you think Speaker A meant? </i>,NA,NA,NA,32,NA,NA,NA,NA,1,NA,jennifer,1,NA,NA,NA,"<b> Speaker A: ""The Empire State Building is tall.""</b>",NA,NA,NA,relative to other buildings,NA,NA,NA,graduated_college,comp_class_warmup,english,NA,NA,NA,In the main trials you will be asked to rephrase something a person said. The utterance will contain a word that is <i>relative</i> and your task is to figure out what it is relative to. <br /> <br /> For example: <br />,1,1586281219693,1,The Empire State Building is tall relative to other,NA,2,NA,NA,NA,"buildings, skyscrapers, houses, constructions (choose one)",comp_class_warmup,NA,NA
2124,<i>What do you think Speaker A meant? </i>,NA,NA,NA,32,NA,NA,NA,NA,1,NA,jennifer,1,NA,NA,NA,"<b> Speaker A: ""The Empire State Building is tall.""</b>",NA,NA,NA,buildings,NA,NA,NA,graduated_college,comp_class_warmup,english,NA,NA,NA,In the main trials you will be asked to rephrase something a person said. The utterance will contain a word that is <i>relative</i> and your task is to figure out what it is relative to. <br /> <br /> For example: <br />,1,1586281219693,2,The Empire State Building is tall relative to other,NA,2,NA,NA,NA,"buildings, skyscrapers, houses, constructions (choose one)",comp_class_warmup,NA,NA
2124,NA,flower,NA,NA,32,warmup/sunflower.jpg,dandelion,This is a,NA,1,flowers,jennifer,NA,sunflower,NA,Please label the pictures below.,NA,NA,NA,NA,NA,NA,warmup/dandelion.jpg,flowers,graduated_college,NA,english,NA,NA,flowers,NA,1,1586281219693,1,NA,This is a,2,NA,These are both,sunflower,NA,warmup1,NA,NA
2124,NA,dandelion,NA,NA,32,warmup/sunflower.jpg,dandelion,This is a,NA,1,flowers,jennifer,NA,sunflower,NA,Please label the pictures below.,NA,NA,NA,NA,NA,NA,warmup/dandelion.jpg,flowers,graduated_college,NA,english,NA,NA,flowers,NA,1,1586281219693,2,NA,This is a,2,NA,These are both,sunflower,NA,warmup1,NA,NA
2124,NA,hummingbird,NA,NA,32,warmup/eagle.png,hummingbird,This is a,NA,1,birds,jennifer,NA,eagle,NA,Please label the pictures below.,NA,NA,NA,NA,NA,NA,warmup/colibri.jpg,birds,graduated_college,NA,english,NA,NA,birds,NA,2,1586281219693,1,NA,This is an,2,NA,These are both,eagle,NA,warmup1,NA,NA
2124,NA,oak tree,NA,NA,32,warmup/bonsai.jpg,redwood or sequoia (choose one),This is a,NA,1,trees,jennifer,NA,bonsai,NA,Please label the pictures below.,NA,NA,NA,NA,NA,NA,warmup/sequoia.png,trees,graduated_college,NA,english,NA,NA,trees,NA,3,1586281219693,1,NA,This is a,2,NA,These are both,sapling,NA,warmup1,NA,NA
2124,NA,redwood,NA,NA,32,warmup/bonsai.jpg,redwood or sequoia (choose one),This is a,NA,1,trees,jennifer,NA,bonsai,NA,Please label the pictures below.,NA,NA,NA,NA,NA,NA,warmup/sequoia.png,trees,graduated_college,NA,english,NA,NA,trees,NA,3,1586281219693,2,NA,This is a,2,NA,These are both,bosai,NA,warmup1,NA,NA
2124,NA,redwood,NA,NA,32,warmup/bonsai.jpg,redwood or sequoia (choose one),This is a,NA,1,trees,jennifer,NA,bonsai,NA,Please label the pictures below.,NA,NA,NA,NA,NA,NA,warmup/sequoia.png,trees,graduated_college,NA,english,NA,NA,trees,NA,3,1586281219693,3,NA,This is a,2,NA,These are both,bonsai,NA,warmup1,NA,NA
2124,What do you think your friend is saying is it big  relative to?,NA,images/redwood_sign.png,images/tree-parade-redwood.png,32,NA,NA,NA,NA,1,trees,jennifer,NA,NA,NA,Your friend goes ahead of you. You see your friend in the distance:,NA,predicate,redwood,NA,tree,NA,NA,NA,graduated_college,NA,english,NA,55826,NA,You and your friend walk to your friend's cabin in a park for the first time. You want to memorize the path and you see the following:,1,1586281219693,NA,It is big  relative to other,NA,2,landmark,NA,NA,NA,custom_main_text1,big,Your friend says: <br/><b>That landmark is a big redwood.</b>
2124,What do you think your friend is saying is it small  relative to?,NA,images/hummingbird.png,images/bird-parade-hummingbird.png,32,NA,NA,NA,NA,1,birds,jennifer,NA,NA,NA,Your friend goes ahead of you. You see your friend in the distance:,NA,subject,hummingbird,NA,bird,NA,NA,NA,graduated_college,NA,english,NA,4683,NA,You visit your friend who works at an animal shelter and you see the following:,2,1586281219693,NA,It is small  relative to other,NA,2,rescue,NA,NA,NA,custom_main_text1,small,Your friend says: <br/><b>That small hummingbird is a rescue.</b>
2124,What do you think your friend is saying is it big  relative to?,NA,images/sunflower.png,images/flower-parade-sunflower.png,32,NA,NA,NA,NA,1,flowers,jennifer,NA,NA,NA,Your friend goes ahead of you. You see your friend in the distance:,NA,subject,sunflower,NA,flower,NA,NA,NA,graduated_college,NA,english,NA,3889,NA,You and your friend are at their garden and you see the following:,3,1586281219693,NA,It is big  relative to other,NA,2,gift,NA,NA,NA,custom_main_text1,big,Your friend says: <br/><b>That big sunflower is a gift.</b>
2124,NA,pug,NA,NA,32,warmup/great-dane.jpg,pug,This is a,NA,1,dogs2,jennifer,NA,great dane,NA,Please label the pictures below.,NA,NA,NA,NA,NA,NA,warmup/pug.jpg,dogs,graduated_college,NA,english,NA,NA,dogs,NA,1,1586281219693,1,NA,This is a,2,NA,These are both,dooober,NA,warmup2,NA,NA
2124,NA,pug,NA,NA,32,warmup/great-dane.jpg,pug,This is a,NA,1,dogs2,jennifer,NA,great dane,NA,Please label the pictures below.,NA,NA,NA,NA,NA,NA,warmup/pug.jpg,dogs,graduated_college,NA,english,NA,NA,dogs,NA,1,1586281219693,2,NA,This is a,2,NA,These are both,great dane,NA,warmup2,NA,NA
2124,NA,NA,NA,NA,32,warmup/doberman.jpg,chihuahua,This is a,NA,1,dogs1,jennifer,NA,doberman,NA,Please label the pictures below.,NA,NA,NA,NA,NA,NA,warmup/chihuahua.jpg,dogs,graduated_college,NA,english,NA,NA,dogs,NA,2,1586281219693,1,NA,This is a,2,NA,These are both,great dane,NA,warmup2,NA,NA
2124,NA,chihuahua,NA,NA,32,warmup/doberman.jpg,chihuahua,This is a,NA,1,dogs1,jennifer,NA,doberman,NA,Please label the pictures below.,NA,NA,NA,NA,NA,NA,warmup/chihuahua.jpg,dogs,graduated_college,NA,english,NA,NA,dogs,NA,2,1586281219693,2,NA,This is a,2,NA,These are both,great dane,NA,warmup2,NA,NA
2124,NA,chihuahua,NA,NA,32,warmup/doberman.jpg,chihuahua,This is a,NA,1,dogs1,jennifer,NA,doberman,NA,Please label the pictures below.,NA,NA,NA,NA,NA,NA,warmup/chihuahua.jpg,dogs,graduated_college,NA,english,NA,NA,dogs,NA,2,1586281219693,3,NA,This is a,2,NA,These are both,doberman,NA,warmup2,NA,NA
2124,What do you think your friend is saying is it small  relative to?,NA,images/pug.png,images/dog-parade-pug.png,32,NA,NA,NA,NA,1,dogs2,jennifer,NA,NA,NA,Your friend goes ahead of you. You see your friend in the distance:,NA,predicate,pug,NA,dogs,NA,NA,NA,graduated_college,NA,english,NA,5003,NA,You and your friend are at a pet show and you see the following:,1,1586281219693,NA,It is small  relative to other,NA,2,prize-winner,NA,NA,NA,custom_main_text2,small,Your friend says: <br/><b>That prize-winner is a small pug.</b>
2124,What do you think your friend is saying is it small relative to?,NA,images/chihuahua.png,images/dog-parade-chihuahua.png,32,NA,NA,NA,NA,1,dogs1,jennifer,NA,NA,NA,Your friend goes ahead of you. You see your friend in the distance:,NA,predicate,chihuahua,NA,dogs,NA,NA,NA,graduated_college,NA,english,NA,3816,NA,You and your friend are at an animal training ground and you see the following:,2,1586281219693,NA,It is small relative to other,NA,2,service animal,NA,NA,NA,custom_main_text2,small,Your friend says: <br/><b>That service animal is a small chihuahua.</b>
2123,<i>What do you think Speaker A meant? </i>,NA,NA,NA,32,NA,NA,NA,NA,2,NA,sarah,1,NA,yes,NA,"<b> Speaker A: ""The Empire State Building is tall.""</b>",NA,NA,47,buildings,NA,NA,NA,graduated_college,comp_class_warmup,english,female,NA,NA,In the main trials you will be asked to rephrase something a person said. The utterance will contain a word that is <i>relative</i> and your task is to figure out what it is relative to. <br /> <br /> For example: <br />,1,1586281410379,1,The Empire State Building is tall relative to other,NA,1.5,NA,NA,NA,"buildings, skyscrapers, houses, constructions (choose one)",comp_class_warmup,NA,NA
2123,NA,dandelion,NA,NA,32,warmup/sunflower.jpg,dandelion,This is a,NA,2,flowers,sarah,NA,sunflower,yes,Please label the pictures below.,NA,NA,NA,47,NA,NA,warmup/dandelion.jpg,flowers,graduated_college,NA,english,female,NA,flowers,NA,1,1586281410379,1,NA,This is a,1.5,NA,These are both,sunflower,NA,warmup1,NA,NA
2123,NA,pug,NA,NA,32,warmup/great-dane.jpg,pug,This is a,NA,2,dogs2,sarah,NA,great dane,yes,Please label the pictures below.,NA,NA,NA,47,NA,NA,warmup/pug.jpg,dogs,graduated_college,NA,english,female,NA,dogs,NA,2,1586281410379,1,NA,This is a,1.5,NA,These are both,dane,NA,warmup1,NA,NA
2123,NA,pug,NA,NA,32,warmup/great-dane.jpg,pug,This is a,NA,2,dogs2,sarah,NA,great dane,yes,Please label the pictures below.,NA,NA,NA,47,NA,NA,warmup/pug.jpg,dogs,graduated_college,NA,english,female,NA,dogs,NA,2,1586281410379,2,NA,This is a,1.5,NA,These are both,dane,NA,warmup1,NA,NA
2123,NA,pug,NA,NA,32,warmup/great-dane.jpg,pug,This is a,NA,2,dogs2,sarah,NA,great dane,yes,Please label the pictures below.,NA,NA,NA,47,NA,NA,warmup/pug.jpg,dogs,graduated_college,NA,english,female,NA,dogs,NA,2,1586281410379,3,NA,This is a,1.5,NA,These are both,great dane,NA,warmup1,NA,NA
2123,NA,tree,NA,NA,32,warmup/bonsai.jpg,redwood or sequoia (choose one),This is a,NA,2,trees,sarah,NA,bonsai,yes,Please label the pictures below.,NA,NA,NA,47,NA,NA,warmup/sequoia.png,trees,graduated_college,NA,english,female,NA,trees,NA,3,1586281410379,1,NA,This is a,1.5,NA,These are both,bonsai tree,NA,warmup1,NA,NA
2123,NA,tree,NA,NA,32,warmup/bonsai.jpg,redwood or sequoia (choose one),This is a,NA,2,trees,sarah,NA,bonsai,yes,Please label the pictures below.,NA,NA,NA,47,NA,NA,warmup/sequoia.png,trees,graduated_college,NA,english,female,NA,trees,NA,3,1586281410379,2,NA,This is a,1.5,NA,These are both,bonsai tree,NA,warmup1,NA,NA
2123,NA,tree,NA,NA,32,warmup/bonsai.jpg,redwood or sequoia (choose one),This is a,NA,2,trees,sarah,NA,bonsai,yes,Please label the pictures below.,NA,NA,NA,47,NA,NA,warmup/sequoia.png,trees,graduated_college,NA,english,female,NA,trees,NA,3,1586281410379,3,NA,This is a,1.5,NA,These are both,tree,NA,warmup1,NA,NA
2123,NA,redwood,NA,NA,32,warmup/bonsai.jpg,redwood or sequoia (choose one),This is a,NA,2,trees,sarah,NA,bonsai,yes,Please label the pictures below.,NA,NA,NA,47,NA,NA,warmup/sequoia.png,trees,graduated_college,NA,english,female,NA,trees,NA,3,1586281410379,4,NA,This is a,1.5,NA,These are both,bonsai,NA,warmup1,NA,NA
2123,What do you think your friend is saying is it big  relative to?,NA,images/sunflower.png,images/flower-parade-sunflower.png,32,NA,NA,NA,NA,2,flowers,sarah,NA,NA,yes,Your friend goes ahead of you. You see your friend in the distance:,NA,predicate,sunflower,47,sunflowers,NA,NA,NA,graduated_college,NA,english,female,15130,NA,You and your friend are at their garden and you see the following:,1,1586281410379,NA,It is big  relative to other,NA,1.5,gift,NA,NA,NA,custom_main_text1,big,Your friend says: <br/><b>That gift is a big sunflower.</b>
2123,What do you think your friend is saying is it small  relative to?,NA,images/bonsai_stick.png,images/tree-parade-bonsai.png,32,NA,NA,NA,NA,2,trees,sarah,NA,NA,yes,Your friend goes ahead of you. You see your friend in the distance:,NA,subject,bonsai,47,trees,NA,NA,NA,graduated_college,NA,english,female,10730,NA,You and your friend walk to your friend's cabin in a park for the first time. You want to memorize the path and you see the following:,2,1586281410379,NA,It is small  relative to other,NA,1.5,landmark,NA,NA,NA,custom_main_text1,small,Your friend says: <br/><b>That small bonsai is a landmark.</b>
2123,What do you think your friend is saying is it big  relative to?,NA,images/great-dane.png,images/dog-parade-great-dane.png,32,NA,NA,NA,NA,2,dogs2,sarah,NA,NA,yes,Your friend goes ahead of you. You see your friend in the distance:,NA,predicate,great dane,47,dogs,NA,NA,NA,graduated_college,NA,english,female,7988,NA,You and your friend are at a pet show and you see the following:,3,1586281410379,NA,It is big  relative to other,NA,1.5,prize-winner,NA,NA,NA,custom_main_text1,big,Your friend says: <br/><b>That prize-winner is a big Great Dane.</b>
2123,NA,chihuahua,NA,NA,32,warmup/doberman.jpg,chihuahua,This is a,NA,2,dogs1,sarah,NA,doberman,yes,Please label the pictures below.,NA,NA,NA,47,NA,NA,warmup/chihuahua.jpg,dogs,graduated_college,NA,english,female,NA,dogs,NA,1,1586281410379,1,NA,This is a,1.5,NA,These are both,great dane,NA,warmup2,NA,NA
2123,NA,chihuahua,NA,NA,32,warmup/doberman.jpg,chihuahua,This is a,NA,2,dogs1,sarah,NA,doberman,yes,Please label the pictures below.,NA,NA,NA,47,NA,NA,warmup/chihuahua.jpg,dogs,graduated_college,NA,english,female,NA,dogs,NA,1,1586281410379,2,NA,This is a,1.5,NA,These are both,doberman,NA,warmup2,NA,NA
2123,NA,hummingbird,NA,NA,32,warmup/eagle.png,hummingbird,This is a,NA,2,birds,sarah,NA,eagle,yes,Please label the pictures below.,NA,NA,NA,47,NA,NA,warmup/colibri.jpg,birds,graduated_college,NA,english,female,NA,birds,NA,2,1586281410379,1,NA,This is an,1.5,NA,These are both,eagle,NA,warmup2,NA,NA
2123,What do you think your friend is saying is it small  relative to?,NA,images/hummingbird.png,images/bird-parade-hummingbird.png,32,NA,NA,NA,NA,2,birds,sarah,NA,NA,yes,Your friend goes ahead of you. You see your friend in the distance:,NA,predicate,hummingbird,47,birds,NA,NA,NA,graduated_college,NA,english,female,6782,NA,You visit your friend who works at an animal shelter and you see the following:,1,1586281410379,NA,It is small  relative to other,NA,1.5,rescue,NA,NA,NA,custom_main_text2,small,Your friend says: <br/><b>That rescue is a small hummingbird.</b>
2123,What do you think your friend is saying is it big relative to?,NA,images/doberman.png,images/dog-parade-doberman.png,32,NA,NA,NA,NA,2,dogs1,sarah,NA,NA,yes,Your friend goes ahead of you. You see your friend in the distance:,NA,subject,doberman,47,dogs,NA,NA,NA,graduated_college,NA,english,female,9432,NA,You and your friend are at an animal training ground and you see the following:,2,1586281410379,NA,It is big relative to other,NA,1.5,service animal,NA,NA,NA,custom_main_text2,big,Your friend says: <br/><b>That big doberman is a service animal.</b>
2122,<i>What do you think Speaker A meant? </i>,NA,NA,NA,32,NA,NA,NA,NA,2,NA,Barbara,1,NA,NA,NA,"<b> Speaker A: ""The Empire State Building is tall.""</b>",NA,NA,41,buildings,NA,NA,NA,some_college,comp_class_warmup,eng,male,NA,NA,In the main trials you will be asked to rephrase something a person said. The utterance will contain a word that is <i>relative</i> and your task is to figure out what it is relative to. <br /> <br /> For example: <br />,1,1586281123740,1,The Empire State Building is tall relative to other,NA,140,NA,NA,NA,"buildings, skyscrapers, houses, constructions (choose one)",comp_class_warmup,NA,NA
2122,NA,tree,NA,NA,32,warmup/bonsai.jpg,redwood or sequoia (choose one),This is a,NA,2,trees,Barbara,NA,bonsai,NA,Please label the pictures below.,NA,NA,NA,41,NA,NA,warmup/sequoia.png,plants,some_college,NA,eng,male,NA,trees,NA,1,1586281123740,1,NA,This is a,140,NA,These are both,plants,NA,warmup1,NA,NA
2122,NA,tree,NA,NA,32,warmup/bonsai.jpg,redwood or sequoia (choose one),This is a,NA,2,trees,Barbara,NA,bonsai,NA,Please label the pictures below.,NA,NA,NA,41,NA,NA,warmup/sequoia.png,plants,some_college,NA,eng,male,NA,trees,NA,1,1586281123740,2,NA,This is a,140,NA,These are both,plants,NA,warmup1,NA,NA
2122,NA,tree,NA,NA,32,warmup/bonsai.jpg,redwood or sequoia (choose one),This is a,NA,2,trees,Barbara,NA,bonsai,NA,Please label the pictures below.,NA,NA,NA,41,NA,NA,warmup/sequoia.png,plants,some_college,NA,eng,male,NA,trees,NA,1,1586281123740,3,NA,This is a,140,NA,These are both,plants,NA,warmup1,NA,NA
2122,NA,tree,NA,NA,32,warmup/bonsai.jpg,redwood or sequoia (choose one),This is a,NA,2,trees,Barbara,NA,bonsai,NA,Please label the pictures below.,NA,NA,NA,41,NA,NA,warmup/sequoia.png,trees,some_college,NA,eng,male,NA,trees,NA,1,1586281123740,4,NA,This is a,140,NA,These are both,plants,NA,warmup1,NA,NA
2122,NA,tree,NA,NA,32,warmup/bonsai.jpg,redwood or sequoia (choose one),This is a,NA,2,trees,Barbara,NA,bonsai,NA,Please label the pictures below.,NA,NA,NA,41,NA,NA,warmup/sequoia.png,trees,some_college,NA,eng,male,NA,trees,NA,1,1586281123740,5,NA,This is a,140,NA,These are both,plants,NA,warmup1,NA,NA
2122,NA,tree,NA,NA,32,warmup/bonsai.jpg,redwood or sequoia (choose one),This is a,NA,2,trees,Barbara,NA,bonsai,NA,Please label the pictures below.,NA,NA,NA,41,NA,NA,warmup/sequoia.png,trees,some_college,NA,eng,male,NA,trees,NA,1,1586281123740,6,NA,This is a,140,NA,These are both,small tree,NA,warmup1,NA,NA
2122,NA,tree,NA,NA,32,warmup/bonsai.jpg,redwood or sequoia (choose one),This is a,NA,2,trees,Barbara,NA,bonsai,NA,Please label the pictures below.,NA,NA,NA,41,NA,NA,warmup/sequoia.png,trees,some_college,NA,eng,male,NA,trees,NA,1,1586281123740,7,NA,This is a,140,NA,These are both,tree,NA,warmup1,NA,NA
2122,NA,redwood,NA,NA,32,warmup/bonsai.jpg,redwood or sequoia (choose one),This is a,NA,2,trees,Barbara,NA,bonsai,NA,Please label the pictures below.,NA,NA,NA,41,NA,NA,warmup/sequoia.png,trees,some_college,NA,eng,male,NA,trees,NA,1,1586281123740,8,NA,This is a,140,NA,These are both,bonsai,NA,warmup1,NA,NA
2122,NA,chihuaua,NA,NA,32,warmup/doberman.jpg,chihuahua,This is a,NA,2,dogs1,Barbara,NA,doberman,NA,Please label the pictures below.,NA,NA,NA,41,NA,NA,warmup/chihuahua.jpg,dogs,some_college,NA,eng,male,NA,dogs,NA,2,1586281123740,1,NA,This is a,140,NA,These are both,great dane,NA,warmup1,NA,NA
2122,NA,chihuaua,NA,NA,32,warmup/doberman.jpg,chihuahua,This is a,NA,2,dogs1,Barbara,NA,doberman,NA,Please label the pictures below.,NA,NA,NA,41,NA,NA,warmup/chihuahua.jpg,dogs,some_college,NA,eng,male,NA,dogs,NA,2,1586281123740,2,NA,This is a,140,NA,These are both,doberman,NA,warmup1,NA,NA
2122,NA,chihuahua,NA,NA,32,warmup/doberman.jpg,chihuahua,This is a,NA,2,dogs1,Barbara,NA,doberman,NA,Please label the pictures below.,NA,NA,NA,41,NA,NA,warmup/chihuahua.jpg,dogs,some_college,NA,eng,male,NA,dogs,NA,2,1586281123740,3,NA,This is a,140,NA,These are both,doberman,NA,warmup1,NA,NA
2122,NA,plant,NA,NA,32,warmup/sunflower.jpg,dandelion,This is a,NA,2,flowers,Barbara,NA,sunflower,NA,Please label the pictures below.,NA,NA,NA,41,NA,NA,warmup/dandelion.jpg,flowers,some_college,NA,eng,male,NA,flowers,NA,3,1586281123740,1,NA,This is a,140,NA,These are both,sunflower,NA,warmup1,NA,NA
2122,NA,dandelion,NA,NA,32,warmup/sunflower.jpg,dandelion,This is a,NA,2,flowers,Barbara,NA,sunflower,NA,Please label the pictures below.,NA,NA,NA,41,NA,NA,warmup/dandelion.jpg,flowers,some_college,NA,eng,male,NA,flowers,NA,3,1586281123740,2,NA,This is a,140,NA,These are both,sunflower,NA,warmup1,NA,NA
2122,What do you think your friend is saying is it small  relative to?,NA,images/bonsai_stick.png,images/tree-parade-bonsai.png,32,NA,NA,NA,NA,2,trees,Barbara,NA,NA,NA,Your friend goes ahead of you. You see your friend in the distance:,NA,predicate,bonsai,41,trees,NA,NA,NA,some_college,NA,eng,male,10322,NA,You and your friend walk to your friend's cabin in a park for the first time. You want to memorize the path and you see the following:,1,1586281123740,NA,It is small  relative to other,NA,140,landmark,NA,NA,NA,custom_main_text1,small,Your friend says: <br/><b>That landmark is a small bonsai.</b>
2122,What do you think your friend is saying is it small  relative to?,NA,images/dandelion.png,images/flower-parade-dandelion.png,32,NA,NA,NA,NA,2,flowers,Barbara,NA,NA,NA,Your friend goes ahead of you. You see your friend in the distance:,NA,predicate,dandelion,41,other gifts,NA,NA,NA,some_college,NA,eng,male,25970,NA,You and your friend are at their garden and you see the following:,2,1586281123740,NA,It is small  relative to other,NA,140,gift,NA,NA,NA,custom_main_text1,small,Your friend says: <br/><b>That gift is a small dandelion.</b>
2122,What do you think your friend is saying is it big relative to?,NA,images/doberman.png,images/dog-parade-doberman.png,32,NA,NA,NA,NA,2,dogs1,Barbara,NA,NA,NA,Your friend goes ahead of you. You see your friend in the distance:,NA,subject,doberman,41,dogs,NA,NA,NA,some_college,NA,eng,male,4076,NA,You and your friend are at an animal training ground and you see the following:,3,1586281123740,NA,It is big relative to other,NA,140,service animal,NA,NA,NA,custom_main_text1,big,Your friend says: <br/><b>That big doberman is a service animal.</b>
2122,NA,bumblee,NA,NA,32,warmup/eagle.png,hummingbird,This is a,NA,2,birds,Barbara,NA,eagle,NA,Please label the pictures below.,NA,NA,NA,41,NA,NA,warmup/colibri.jpg,birds,some_college,NA,eng,male,NA,birds,NA,1,1586281123740,1,NA,This is an,140,NA,These are both,eagle,NA,warmup2,NA,NA
2122,NA,hummingbird,NA,NA,32,warmup/eagle.png,hummingbird,This is a,NA,2,birds,Barbara,NA,eagle,NA,Please label the pictures below.,NA,NA,NA,41,NA,NA,warmup/colibri.jpg,birds,some_college,NA,eng,male,NA,birds,NA,1,1586281123740,2,NA,This is an,140,NA,These are both,eagle,NA,warmup2,NA,NA
2122,NA,pitbull,NA,NA,32,warmup/great-dane.jpg,pug,This is a,NA,2,dogs2,Barbara,NA,great dane,NA,Please label the pictures below.,NA,NA,NA,41,NA,NA,warmup/pug.jpg,dogs,some_college,NA,eng,male,NA,dogs,NA,2,1586281123740,1,NA,This is a,140,NA,These are both,doberman,NA,warmup2,NA,NA
2122,NA,pug,NA,NA,32,warmup/great-dane.jpg,pug,This is a,NA,2,dogs2,Barbara,NA,great dane,NA,Please label the pictures below.,NA,NA,NA,41,NA,NA,warmup/pug.jpg,dogs,some_college,NA,eng,male,NA,dogs,NA,2,1586281123740,2,NA,This is a,140,NA,These are both,great dane,NA,warmup2,NA,NA
2122,What do you think your friend is saying is it small  relative to?,NA,images/hummingbird.png,images/bird-parade-hummingbird.png,32,NA,NA,NA,NA,2,birds,Barbara,NA,NA,NA,Your friend goes ahead of you. You see your friend in the distance:,NA,subject,hummingbird,41,birds,NA,NA,NA,some_college,NA,eng,male,12635,NA,You visit your friend who works at an animal shelter and you see the following:,1,1586281123740,NA,It is small  relative to other,NA,140,rescue,NA,NA,NA,custom_main_text2,small,Your friend says: <br/><b>That small hummingbird is a rescue.</b>
2122,What do you think your friend is saying is it big  relative to?,NA,images/great-dane.png,images/dog-parade-great-dane.png,32,NA,NA,NA,NA,2,dogs2,Barbara,NA,NA,NA,Your friend goes ahead of you. You see your friend in the distance:,NA,subject,great dane,41,dogs,NA,NA,NA,some_college,NA,eng,male,9281,NA,You and your friend are at a pet show and you see the following:,2,1586281123740,NA,It is big  relative to other,NA,140,prize-winner,NA,NA,NA,custom_main_text2,big,Your friend says: <br/><b>That big Great Dane is a prize-winner.</b>
2121,<i>What do you think Speaker A meant? </i>,NA,NA,NA,32,NA,NA,NA,no,2,NA,susan,1,NA,yes,NA,"<b> Speaker A: ""The Empire State Building is tall.""</b>",NA,NA,32,buildings,NA,NA,NA,some_college,comp_class_warmup,English,male,NA,NA,In the main trials you will be asked to rephrase something a person said. The utterance will contain a word that is <i>relative</i> and your task is to figure out what it is relative to. <br /> <br /> For example: <br />,1,1586280866110,1,The Empire State Building is tall relative to other,NA,1,NA,NA,NA,"buildings, skyscrapers, houses, constructions (choose one)",comp_class_warmup,NA,NA
2121,NA,hummingbird,NA,NA,32,warmup/eagle.png,hummingbird,This is a,no,2,birds,susan,NA,eagle,yes,Please label the pictures below.,NA,NA,NA,32,NA,NA,warmup/colibri.jpg,birds,some_college,NA,English,male,NA,birds,NA,1,1586280866110,1,NA,This is an,1,NA,These are both,eagle,NA,warmup1,NA,NA
2121,NA,chihauha,NA,NA,32,warmup/doberman.jpg,chihuahua,This is a,no,2,dogs1,susan,NA,doberman,yes,Please label the pictures below.,NA,NA,NA,32,NA,NA,warmup/chihuahua.jpg,dogs,some_college,NA,English,male,NA,dogs,NA,2,1586280866110,1,NA,This is a,1,NA,These are both,doberman,NA,warmup1,NA,NA
2121,NA,chihauha,NA,NA,32,warmup/doberman.jpg,chihuahua,This is a,no,2,dogs1,susan,NA,doberman,yes,Please label the pictures below.,NA,NA,NA,32,NA,NA,warmup/chihuahua.jpg,dogs,some_college,NA,English,male,NA,dogs,NA,2,1586280866110,2,NA,This is a,1,NA,These are both,doberman,NA,warmup1,NA,NA
2121,NA,chihuahua,NA,NA,32,warmup/doberman.jpg,chihuahua,This is a,no,2,dogs1,susan,NA,doberman,yes,Please label the pictures below.,NA,NA,NA,32,NA,NA,warmup/chihuahua.jpg,dogs,some_college,NA,English,male,NA,dogs,NA,2,1586280866110,3,NA,This is a,1,NA,These are both,doberman,NA,warmup1,NA,NA
2121,NA,plant,NA,NA,32,warmup/sunflower.jpg,dandelion,This is a,no,2,flowers,susan,NA,sunflower,yes,Please label the pictures below.,NA,NA,NA,32,NA,NA,warmup/dandelion.jpg,plants,some_college,NA,English,male,NA,flowers,NA,3,1586280866110,1,NA,This is a,1,NA,These are both,sunflower,NA,warmup1,NA,NA
2121,NA,dandelion,NA,NA,32,warmup/sunflower.jpg,dandelion,This is a,no,2,flowers,susan,NA,sunflower,yes,Please label the pictures below.,NA,NA,NA,32,NA,NA,warmup/dandelion.jpg,flowers,some_college,NA,English,male,NA,flowers,NA,3,1586280866110,2,NA,This is a,1,NA,These are both,sunflower,NA,warmup1,NA,NA
2121,What do you think your friend is saying is it small relative to?,NA,images/chihuahua.png,images/dog-parade-chihuahua.png,32,NA,NA,NA,no,2,dogs1,susan,NA,NA,yes,Your friend goes ahead of you. You see your friend in the distance:,NA,predicate,chihuahua,32,chihuahuas,NA,NA,NA,some_college,NA,English,male,77739,NA,You and your friend are at an animal training ground and you see the following:,1,1586280866110,NA,It is small relative to other,NA,1,service animal,NA,NA,NA,custom_main_text1,small,Your friend says: <br/><b>That service animal is a small chihuahua.</b>
2121,What do you think your friend is saying is it small  relative to?,NA,images/hummingbird.png,images/bird-parade-hummingbird.png,32,NA,NA,NA,no,2,birds,susan,NA,NA,yes,Your friend goes ahead of you. You see your friend in the distance:,NA,subject,hummingbird,32,birds,NA,NA,NA,some_college,NA,English,male,9240,NA,You visit your friend who works at an animal shelter and you see the following:,2,1586280866110,NA,It is small  relative to other,NA,1,rescue,NA,NA,NA,custom_main_text1,small,Your friend says: <br/><b>That small hummingbird is a rescue.</b>
2121,What do you think your friend is saying is it big  relative to?,NA,images/sunflower.png,images/flower-parade-sunflower.png,32,NA,NA,NA,no,2,flowers,susan,NA,NA,yes,Your friend goes ahead of you. You see your friend in the distance:,NA,subject,sunflower,32,sunflowers,NA,NA,NA,some_college,NA,English,male,4599,NA,You and your friend are at their garden and you see the following:,3,1586280866110,NA,It is big  relative to other,NA,1,gift,NA,NA,NA,custom_main_text1,big,Your friend says: <br/><b>That big sunflower is a gift.</b>
2121,NA,tree,NA,NA,32,warmup/bonsai.jpg,redwood or sequoia (choose one),This is a,no,2,trees,susan,NA,bonsai,yes,Please label the pictures below.,NA,NA,NA,32,NA,NA,warmup/sequoia.png,plants,some_college,NA,English,male,NA,trees,NA,1,1586280866110,1,NA,This is a,1,NA,These are both,sapling,NA,warmup2,NA,NA
2121,NA,redwood,NA,NA,32,warmup/bonsai.jpg,redwood or sequoia (choose one),This is a,no,2,trees,susan,NA,bonsai,yes,Please label the pictures below.,NA,NA,NA,32,NA,NA,warmup/sequoia.png,trees,some_college,NA,English,male,NA,trees,NA,1,1586280866110,2,NA,This is a,1,NA,These are both,bonsai,NA,warmup2,NA,NA
2121,NA,bulldog,NA,NA,32,warmup/great-dane.jpg,pug,This is a,no,2,dogs2,susan,NA,great dane,yes,Please label the pictures below.,NA,NA,NA,32,NA,NA,warmup/pug.jpg,dogs,some_college,NA,English,male,NA,dogs,NA,2,1586280866110,1,NA,This is a,1,NA,These are both,doberman,NA,warmup2,NA,NA
2121,NA,pug,NA,NA,32,warmup/great-dane.jpg,pug,This is a,no,2,dogs2,susan,NA,great dane,yes,Please label the pictures below.,NA,NA,NA,32,NA,NA,warmup/pug.jpg,dogs,some_college,NA,English,male,NA,dogs,NA,2,1586280866110,2,NA,This is a,1,NA,These are both,great dane,NA,warmup2,NA,NA
2121,What do you think your friend is saying is it big  relative to?,NA,images/great-dane.png,images/dog-parade-great-dane.png,32,NA,NA,NA,no,2,dogs2,susan,NA,NA,yes,Your friend goes ahead of you. You see your friend in the distance:,NA,predicate,great dane,32,great danes,NA,NA,NA,some_college,NA,English,male,95085,NA,You and your friend are at a pet show and you see the following:,1,1586280866110,NA,It is big  relative to other,NA,1,prize-winner,NA,NA,NA,custom_main_text2,big,Your friend says: <br/><b>That prize-winner is a big Great Dane.</b>
2121,What do you think your friend is saying is it small  relative to?,NA,images/bonsai_stick.png,images/tree-parade-bonsai.png,32,NA,NA,NA,no,2,trees,susan,NA,NA,yes,Your friend goes ahead of you. You see your friend in the distance:,NA,subject,bonsai,32,bonsais,NA,NA,NA,some_college,NA,English,male,4416,NA,You and your friend walk to your friend's cabin in a park for the first time. You want to memorize the path and you see the following:,2,1586280866110,NA,It is small  relative to other,NA,1,landmark,NA,NA,NA,custom_main_text2,small,Your friend says: <br/><b>That small bonsai is a landmark.</b>
2120,<i>What do you think Speaker A meant? </i>,NA,NA,NA,32,NA,NA,NA,None but I had to take a few guesses to get the pug right,2,NA,barbara,1,NA,yes,NA,"<b> Speaker A: ""The Empire State Building is tall.""</b>",NA,NA,50,Buildings,NA,NA,NA,some_college,comp_class_warmup,English,male,NA,NA,In the main trials you will be asked to rephrase something a person said. The utterance will contain a word that is <i>relative</i> and your task is to figure out what it is relative to. <br /> <br /> For example: <br />,1,1586280931178,1,The Empire State Building is tall relative to other,NA,1,NA,NA,NA,"buildings, skyscrapers, houses, constructions (choose one)",comp_class_warmup,NA,NA
2120,NA,Chihuahua,NA,NA,32,warmup/doberman.jpg,chihuahua,This is a,None but I had to take a few guesses to get the pug right,2,dogs1,barbara,NA,doberman,yes,Please label the pictures below.,NA,NA,NA,50,NA,NA,warmup/chihuahua.jpg,Dogs,some_college,NA,English,male,NA,dogs,NA,1,1586280931178,1,NA,This is a,1,NA,These are both,Doberman,NA,warmup1,NA,NA
2120,NA,Tree,NA,NA,32,warmup/bonsai.jpg,redwood or sequoia (choose one),This is a,None but I had to take a few guesses to get the pug right,2,trees,barbara,NA,bonsai,yes,Please label the pictures below.,NA,NA,NA,50,NA,NA,warmup/sequoia.png,Trees,some_college,NA,English,male,NA,trees,NA,2,1586280931178,1,NA,This is a,1,NA,These are both,Bonsai tree,NA,warmup1,NA,NA
2120,NA,Redwood,NA,NA,32,warmup/bonsai.jpg,redwood or sequoia (choose one),This is a,None but I had to take a few guesses to get the pug right,2,trees,barbara,NA,bonsai,yes,Please label the pictures below.,NA,NA,NA,50,NA,NA,warmup/sequoia.png,Trees,some_college,NA,English,male,NA,trees,NA,2,1586280931178,2,NA,This is a,1,NA,These are both,Bonsai,NA,warmup1,NA,NA
2120,NA,Hummingbird,NA,NA,32,warmup/eagle.png,hummingbird,This is a,None but I had to take a few guesses to get the pug right,2,birds,barbara,NA,eagle,yes,Please label the pictures below.,NA,NA,NA,50,NA,NA,warmup/colibri.jpg,Birds,some_college,NA,English,male,NA,birds,NA,3,1586280931178,1,NA,This is an,1,NA,These are both,Eagle,NA,warmup1,NA,NA
