submission_id,question,response1,target_picture,context_picture,experiment_id,picture2,correct1,trial_type,question1,problems,enjoyment,item,botresponse,trials,correct2,understand,text,sentence,syntax,ref_np,target,age,response,comments,picture1,education,target_size,name,languages,sex,RT,context,trial_number,startTime,attempts,paraphrase,question3,fairprice,response2,correct,adj_cond,trial_name,adj,utterance
2255,<i>What do you think Speaker A meant? </i>,NA,NA,NA,35,NA,NA,NA,NA,none,1,NA,elizabeth,1,NA,yes,NA,"<b> Speaker A: ""The Empire State Building is tall.""</b>",NA,NA,NA,36,buildings,none,NA,some_college,NA,comp_class_warmup,English,female,NA,In the main trials you will be asked to rephrase something a person said. The utterance will contain a word that is <i>relative</i> and your task is to figure out what it is relative to. <br /> <br /> For example: <br />,1,1588871566726,1,The Empire State Building is tall relative to other,NA,0.6,NA,"buildings, skyscrapers, houses, constructions (choose one)",NA,comp_class_warmup,NA,NA
2255,NA,bonsai,NA,NA,35,warmup/bonsai2.png,redwood or sequoia (choose one),NA,This is a,none,1,trees,elizabeth,NA,bonsai,yes,Your turn! Please label the pictures below.,NA,NA,NA,NA,36,NA,none,warmup/redwood2.png,some_college,NA,NA,English,female,NA,NA,1,1588871566726,1,NA,This is a,0.6,redwood,NA,NA,warmup1,NA,NA
2255,NA,sunflower,NA,NA,35,warmup/sunflower2.png,dandelion,NA,This is a,none,1,flowers,elizabeth,NA,sunflower,yes,Your turn! Please label the pictures below.,NA,NA,NA,NA,36,NA,none,warmup/dandelion2.png,some_college,NA,NA,English,female,NA,NA,2,1588871566726,1,NA,This is a,0.6,dandelion,NA,NA,warmup1,NA,NA
2255,What do you think your friend is saying is it big relative to?,NA,images/sunflower_filler.png,images/flower-parade-basic_filler.png,35,NA,NA,filler,NA,none,1,flowers,elizabeth,NA,NA,yes,Your friend goes ahead of you. You see your friend in the distance:,NA,subj,gift,sunflower,36,sunflowers,none,NA,some_college,big,NA,English,female,6921,You and your friend see the following:,1,1588871566726,NA,It is big relative to other,NA,0.6,NA,NA,congruent,custom_main_text1,big,Your friend says: <br/><b>That sunflower is big.</b>
2255,What do you think your friend is saying is it big relative to?,NA,images/redwood_sign.png,images/tree-parade-basic.png,35,NA,NA,critical,NA,none,1,trees,elizabeth,NA,NA,yes,Your friend goes ahead of you. You see your friend in the distance:,NA,subj,landmark,redwood,36,redwoods,none,NA,some_college,big,NA,English,female,5021,You and your friend walk to your friend's cabin in a park for the first time. You want to memorize the path and you see the following:,2,1588871566726,NA,It is big relative to other,NA,0.6,NA,NA,congruent,custom_main_text1,big,Your friend says: <br/><b>That big redwood is a landmark.</b>
2255,What do you think your friend is saying is it small relative to?,NA,images/bonsai_filler.png,images/tree-parade-basic_filler.png,35,NA,NA,filler,NA,none,1,trees,elizabeth,NA,NA,yes,Your friend goes ahead of you. You see your friend in the distance:,NA,subj,landmark,bonsai,36,bonsais,none,NA,some_college,small,NA,English,female,4275,You and your friend see the following:,3,1588871566726,NA,It is small relative to other,NA,0.6,NA,NA,congruent,custom_main_text1,small,Your friend says: <br/><b>That bonsai is small.</b>
2255,What do you think your friend is saying is it small relative to?,NA,images/dandelion.png,images/flower-parade-basic.png,35,NA,NA,critical,NA,none,1,flowers,elizabeth,NA,NA,yes,Your friend goes ahead of you. You see your friend in the distance:,NA,pred,gift,dandelion,36,dandelions,none,NA,some_college,small,NA,English,female,6986,You and your friend are at their garden and you see the following:,4,1588871566726,NA,It is small relative to other,NA,0.6,NA,NA,congruent,custom_main_text1,small,Your friend says: <br/><b>That gift is a small dandelion.</b>
2255,NA,eagle,NA,NA,35,warmup/eagle2.png,hummingbird,NA,This is a,none,1,birds,elizabeth,NA,eagle,yes,Your turn! Please label the pictures below.,NA,NA,NA,NA,36,NA,none,warmup/hummingbird2.png,some_college,NA,NA,English,female,NA,NA,1,1588871566726,1,NA,This is an,0.6,hummingbird,NA,NA,warmup2,NA,NA
2255,NA,doberman,NA,NA,35,warmup/doberman2.png,chihuahua,NA,This is a,none,1,dogs1,elizabeth,NA,doberman,yes,Your turn! Please label the pictures below.,NA,NA,NA,NA,36,NA,none,warmup/chihuahua2.png,some_college,NA,NA,English,female,NA,NA,2,1588871566726,1,NA,This is a,0.6,chihuahua,NA,NA,warmup2,NA,NA
2255,What do you think your friend is saying is it small relative to?,NA,images/hummingbird_filler.png,images/bird-parade-basic_filler.png,35,NA,NA,filler,NA,none,1,birds,elizabeth,NA,NA,yes,Your friend goes ahead of you. You see your friend in the distance:,NA,pred,rescue,hummingbird,36,hummingbirds,none,NA,some_college,small,NA,English,female,6847,You and your friend see the following:,1,1588871566726,NA,It is small relative to other,NA,0.6,NA,NA,congruent,custom_main_text2,small,Your friend says: <br/><b>That's a small hummingbird.</b>
2255,What do you think your friend is saying is it big relative to?,NA,images/doberman_filler.png,images/dog-parade-basic_filler.png,35,NA,NA,filler,NA,none,1,dogs1,elizabeth,NA,NA,yes,Your friend goes ahead of you. You see your friend in the distance:,NA,pred,service animal,doberman,36,dobermans,none,NA,some_college,big,NA,English,female,3673,You and your friend see the following:,2,1588871566726,NA,It is big relative to other,NA,0.6,NA,NA,congruent,custom_main_text2,big,Your friend says: <br/><b>That's a big doberman.</b>
2255,What do you think your friend is saying is it small relative to?,NA,images/chihuahua.png,images/dog-parade-basic.png,35,NA,NA,critical,NA,none,1,dogs1,elizabeth,NA,NA,yes,Your friend goes ahead of you. You see your friend in the distance:,NA,pred,service animal,chihuahua,36,chihuahuas,none,NA,some_college,small,NA,English,female,4657,You and your friend are at an animal training ground and you see the following:,3,1588871566726,NA,It is small relative to other,NA,0.6,NA,NA,congruent,custom_main_text2,small,Your friend says: <br/><b>That service animal is a small chihuahua.</b>
2255,What do you think your friend is saying is it big relative to?,NA,images/eagle.png,images/bird-parade-basic.png,35,NA,NA,critical,NA,none,1,birds,elizabeth,NA,NA,yes,Your friend goes ahead of you. You see your friend in the distance:,NA,subj,rescue,eagle,36,eagles,none,NA,some_college,big,NA,English,female,8266,You visit your friend who works at an animal shelter and you see the following:,4,1588871566726,NA,It is big relative to other,NA,0.6,NA,NA,congruent,custom_main_text2,big,Your friend says: <br/><b>That big eagle is a rescue.</b>
2254,<i>What do you think Speaker A meant? </i>,NA,NA,NA,35,NA,NA,NA,NA,No,1,NA,Jessica,1,NA,NA,NA,"<b> Speaker A: ""The Empire State Building is tall.""</b>",NA,NA,NA,26,buildings,NA,NA,graduated_high_school,NA,comp_class_warmup,English,male,NA,In the main trials you will be asked to rephrase something a person said. The utterance will contain a word that is <i>relative</i> and your task is to figure out what it is relative to. <br /> <br /> For example: <br />,1,1588869551881,1,The Empire State Building is tall relative to other,NA,1,NA,"buildings, skyscrapers, houses, constructions (choose one)",NA,comp_class_warmup,NA,NA
2254,NA,great dane,NA,NA,35,warmup/great-dane2.png,pug,NA,This is a,No,1,dogs2,Jessica,NA,great dane,NA,Your turn! Please label the pictures below.,NA,NA,NA,NA,26,NA,NA,warmup/pug2.png,graduated_high_school,NA,NA,English,male,NA,NA,1,1588869551881,1,NA,This is a,1,pug,NA,NA,warmup1,NA,NA
2254,NA,doberman,NA,NA,35,warmup/doberman2.png,chihuahua,NA,This is a,No,1,dogs1,Jessica,NA,doberman,NA,Your turn! Please label the pictures below.,NA,NA,NA,NA,26,NA,NA,warmup/chihuahua2.png,graduated_high_school,NA,NA,English,male,NA,NA,2,1588869551881,1,NA,This is a,1,chihuahua,NA,NA,warmup1,NA,NA
2254,What do you think your friend is saying is it small relative to?,NA,images/pug_filler.png,images/dog-parade-basic2_filler.png,35,NA,NA,filler,NA,No,1,dogs2,Jessica,NA,NA,NA,Your friend goes ahead of you. You see your friend in the distance:,NA,subj,prize-winner,pug,26,dogs,NA,NA,graduated_high_school,small,NA,English,male,18129,You and your friend see the following:,1,1588869551881,NA,It is small relative to other,NA,1,NA,NA,congruent,custom_main_text1,small,Your friend says: <br/><b>That pug is small.</b>
2254,What do you think your friend is saying is it small relative to?,NA,images/chihuahua.png,images/dog-parade-basic.png,35,NA,NA,critical,NA,No,1,dogs1,Jessica,NA,NA,NA,Your friend goes ahead of you. You see your friend in the distance:,NA,subj,service animal,chihuahua,26,dogs,NA,NA,graduated_high_school,small,NA,English,male,20482,You and your friend are at an animal training ground and you see the following:,2,1588869551881,NA,It is small relative to other,NA,1,NA,NA,congruent,custom_main_text1,small,Your friend says: <br/><b>That small chihuahua is a service animal.</b>
2254,What do you think your friend is saying is it big relative to?,NA,images/doberman_filler.png,images/dog-parade-basic_filler.png,35,NA,NA,filler,NA,No,1,dogs1,Jessica,NA,NA,NA,Your friend goes ahead of you. You see your friend in the distance:,NA,subj,service animal,doberman,26,dogs,NA,NA,graduated_high_school,big,NA,English,male,8065,You and your friend see the following:,3,1588869551881,NA,It is big relative to other,NA,1,NA,NA,congruent,custom_main_text1,big,Your friend says: <br/><b>That doberman is big.</b>
2254,What do you think your friend is saying is it big relative to?,NA,images/great-dane.png,images/dog-parade-basic2.png,35,NA,NA,critical,NA,No,1,dogs2,Jessica,NA,NA,NA,Your friend goes ahead of you. You see your friend in the distance:,NA,pred,prize-winner,Great Dane,26,dogs,NA,NA,graduated_high_school,big,NA,English,male,23853,You and your friend are at a pet show and you see the following:,4,1588869551881,NA,It is big relative to other,NA,1,NA,NA,congruent,custom_main_text1,big,Your friend says: <br/><b>That prize-winner is a big Great Dane.</b>
2254,NA,eagle,NA,NA,35,warmup/eagle2.png,hummingbird,NA,This is a,No,1,birds,Jessica,NA,eagle,NA,Your turn! Please label the pictures below.,NA,NA,NA,NA,26,NA,NA,warmup/hummingbird2.png,graduated_high_school,NA,NA,English,male,NA,NA,1,1588869551881,1,NA,This is an,1,hummingbird,NA,NA,warmup2,NA,NA
2254,NA,sunflower,NA,NA,35,warmup/sunflower2.png,dandelion,NA,This is a,No,1,flowers,Jessica,NA,sunflower,NA,Your turn! Please label the pictures below.,NA,NA,NA,NA,26,NA,NA,warmup/dandelion2.png,graduated_high_school,NA,NA,English,male,NA,NA,2,1588869551881,1,NA,This is a,1,dandelion,NA,NA,warmup2,NA,NA
2254,What do you think your friend is saying is it big relative to?,NA,images/eagle_filler.png,images/bird-parade-basic_filler.png,35,NA,NA,filler,NA,No,1,birds,Jessica,NA,NA,NA,Your friend goes ahead of you. You see your friend in the distance:,NA,pred,rescue,eagle,26,birds,NA,NA,graduated_high_school,big,NA,English,male,7958,You and your friend see the following:,1,1588869551881,NA,It is big relative to other,NA,1,NA,NA,congruent,custom_main_text2,big,Your friend says: <br/><b>That's a big eagle.</b>
2254,What do you think your friend is saying is it small relative to?,NA,images/dandelion_filler.png,images/flower-parade-basic_filler.png,35,NA,NA,filler,NA,No,1,flowers,Jessica,NA,NA,NA,Your friend goes ahead of you. You see your friend in the distance:,NA,pred,gift,dandelion,26,dandelions,NA,NA,graduated_high_school,small,NA,English,male,16486,You and your friend see the following:,2,1588869551881,NA,It is small relative to other,NA,1,NA,NA,congruent,custom_main_text2,small,Your friend says: <br/><b>That's a small dandelion.</b>
2254,What do you think your friend is saying is it big relative to?,NA,images/sunflower.png,images/flower-parade-basic.png,35,NA,NA,critical,NA,No,1,flowers,Jessica,NA,NA,NA,Your friend goes ahead of you. You see your friend in the distance:,NA,pred,gift,sunflower,26,sunflowers,NA,NA,graduated_high_school,big,NA,English,male,12311,You and your friend are at their garden and you see the following:,3,1588869551881,NA,It is big relative to other,NA,1,NA,NA,congruent,custom_main_text2,big,Your friend says: <br/><b>That gift is a big sunflower.</b>
2254,What do you think your friend is saying is it small relative to?,NA,images/hummingbird.png,images/bird-parade-basic.png,35,NA,NA,critical,NA,No,1,birds,Jessica,NA,NA,NA,Your friend goes ahead of you. You see your friend in the distance:,NA,subj,rescue,hummingbird,26,birds,NA,NA,graduated_high_school,small,NA,English,male,10187,You visit your friend who works at an animal shelter and you see the following:,4,1588869551881,NA,It is small relative to other,NA,1,NA,NA,congruent,custom_main_text2,small,Your friend says: <br/><b>That small hummingbird is a rescue.</b>
2253,<i>What do you think Speaker A meant? </i>,NA,NA,NA,35,NA,NA,NA,NA,no,1,NA,linda,1,NA,yes,NA,"<b> Speaker A: ""The Empire State Building is tall.""</b>",NA,NA,NA,35,buildings,NA,NA,graduated_college,NA,comp_class_warmup,english,female,NA,In the main trials you will be asked to rephrase something a person said. The utterance will contain a word that is <i>relative</i> and your task is to figure out what it is relative to. <br /> <br /> For example: <br />,1,1588870818532,1,The Empire State Building is tall relative to other,NA,1,NA,"buildings, skyscrapers, houses, constructions (choose one)",NA,comp_class_warmup,NA,NA
2253,NA,great dane,NA,NA,35,warmup/great-dane2.png,pug,NA,This is a,no,1,dogs2,linda,NA,great dane,yes,Your turn! Please label the pictures below.,NA,NA,NA,NA,35,NA,NA,warmup/pug2.png,graduated_college,NA,NA,english,female,NA,NA,1,1588870818532,1,NA,This is a,1,pug,NA,NA,warmup1,NA,NA
2253,NA,sunflower,NA,NA,35,warmup/sunflower2.png,dandelion,NA,This is a,no,1,flowers,linda,NA,sunflower,yes,Your turn! Please label the pictures below.,NA,NA,NA,NA,35,NA,NA,warmup/dandelion2.png,graduated_college,NA,NA,english,female,NA,NA,2,1588870818532,1,NA,This is a,1,dandelion,NA,NA,warmup1,NA,NA
2253,What do you think your friend is saying is it small relative to?,NA,images/dandelion_filler.png,images/flower-parade-basic_filler.png,35,NA,NA,filler,NA,no,1,flowers,linda,NA,NA,yes,Your friend goes ahead of you. You see your friend in the distance:,NA,pred,gift,dandelion,35,flowers,NA,NA,graduated_college,small,NA,english,female,10347,You and your friend see the following:,1,1588870818532,NA,It is small relative to other,NA,1,NA,NA,congruent,custom_main_text1,small,Your friend says: <br/><b>That's a small dandelion.</b>
2253,What do you think your friend is saying is it big relative to?,NA,images/sunflower.png,images/flower-parade-basic.png,35,NA,NA,critical,NA,no,1,flowers,linda,NA,NA,yes,Your friend goes ahead of you. You see your friend in the distance:,NA,subj,gift,sunflower,35,gifts,NA,NA,graduated_college,big,NA,english,female,11920,You and your friend are at their garden and you see the following:,2,1588870818532,NA,It is big relative to other,NA,1,NA,NA,congruent,custom_main_text1,big,Your friend says: <br/><b>That big sunflower is a gift.</b>
2253,What do you think your friend is saying is it big relative to?,NA,images/great-dane.png,images/dog-parade-basic2.png,35,NA,NA,critical,NA,no,1,dogs2,linda,NA,NA,yes,Your friend goes ahead of you. You see your friend in the distance:,NA,subj,prize-winner,Great Dane,35,dogs,NA,NA,graduated_college,big,NA,english,female,9468,You and your friend are at a pet show and you see the following:,3,1588870818532,NA,It is big relative to other,NA,1,NA,NA,congruent,custom_main_text1,big,Your friend says: <br/><b>That big Great Dane is a prize-winner.</b>
2253,What do you think your friend is saying is it small relative to?,NA,images/pug_filler.png,images/dog-parade-basic2_filler.png,35,NA,NA,filler,NA,no,1,dogs2,linda,NA,NA,yes,Your friend goes ahead of you. You see your friend in the distance:,NA,subj,prize-winner,pug,35,pugs,NA,NA,graduated_college,small,NA,english,female,6344,You and your friend see the following:,4,1588870818532,NA,It is small relative to other,NA,1,NA,NA,congruent,custom_main_text1,small,Your friend says: <br/><b>That pug is small.</b>
2253,NA,doberman,NA,NA,35,warmup/doberman2.png,chihuahua,NA,This is a,no,1,dogs1,linda,NA,doberman,yes,Your turn! Please label the pictures below.,NA,NA,NA,NA,35,NA,NA,warmup/chihuahua2.png,graduated_college,NA,NA,english,female,NA,NA,1,1588870818532,1,NA,This is a,1,chihuahua,NA,NA,warmup2,NA,NA
2253,NA,eagle,NA,NA,35,warmup/eagle2.png,hummingbird,NA,This is a,no,1,birds,linda,NA,eagle,yes,Your turn! Please label the pictures below.,NA,NA,NA,NA,35,NA,NA,warmup/hummingbird2.png,graduated_college,NA,NA,english,female,NA,NA,2,1588870818532,1,NA,This is an,1,hummingbird,NA,NA,warmup2,NA,NA
2253,What do you think your friend is saying is it big relative to?,NA,images/eagle_filler.png,images/bird-parade-basic_filler.png,35,NA,NA,filler,NA,no,1,birds,linda,NA,NA,yes,Your friend goes ahead of you. You see your friend in the distance:,NA,pred,rescue,eagle,35,birds,NA,NA,graduated_college,big,NA,english,female,8913,You and your friend see the following:,1,1588870818532,NA,It is big relative to other,NA,1,NA,NA,congruent,custom_main_text2,big,Your friend says: <br/><b>That's a big eagle.</b>
2253,What do you think your friend is saying is it small relative to?,NA,images/hummingbird.png,images/bird-parade-basic.png,35,NA,NA,critical,NA,no,1,birds,linda,NA,NA,yes,Your friend goes ahead of you. You see your friend in the distance:,NA,pred,rescue,hummingbird,35,rescues,NA,NA,graduated_college,small,NA,english,female,5658,You visit your friend who works at an animal shelter and you see the following:,2,1588870818532,NA,It is small relative to other,NA,1,NA,NA,congruent,custom_main_text2,small,Your friend says: <br/><b>That rescue is a small hummingbird.</b>
2253,What do you think your friend is saying is it big relative to?,NA,images/doberman_filler.png,images/dog-parade-basic_filler.png,35,NA,NA,filler,NA,no,1,dogs1,linda,NA,NA,yes,Your friend goes ahead of you. You see your friend in the distance:,NA,subj,service animal,doberman,35,dogs,NA,NA,graduated_college,big,NA,english,female,3932,You and your friend see the following:,3,1588870818532,NA,It is big relative to other,NA,1,NA,NA,congruent,custom_main_text2,big,Your friend says: <br/><b>That doberman is big.</b>
2253,What do you think your friend is saying is it small relative to?,NA,images/chihuahua.png,images/dog-parade-basic.png,35,NA,NA,critical,NA,no,1,dogs1,linda,NA,NA,yes,Your friend goes ahead of you. You see your friend in the distance:,NA,pred,service animal,chihuahua,35,chihuahuas,NA,NA,graduated_college,small,NA,english,female,7940,You and your friend are at an animal training ground and you see the following:,4,1588870818532,NA,It is small relative to other,NA,1,NA,NA,congruent,custom_main_text2,small,Your friend says: <br/><b>That service animal is a small chihuahua.</b>
2252,<i>What do you think Speaker A meant? </i>,NA,NA,NA,35,NA,NA,NA,NA,No problems,2,NA,susan,1,NA,NA,NA,"<b> Speaker A: ""The Empire State Building is tall.""</b>",NA,NA,NA,NA,buildings,Thanks stay safe and good luck with your work,NA,NA,NA,comp_class_warmup,English,NA,NA,In the main trials you will be asked to rephrase something a person said. The utterance will contain a word that is <i>relative</i> and your task is to figure out what it is relative to. <br /> <br /> For example: <br />,1,1588869247727,1,The Empire State Building is tall relative to other,NA,1,NA,"buildings, skyscrapers, houses, constructions (choose one)",NA,comp_class_warmup,NA,NA
2252,NA,bonsai,NA,NA,35,warmup/bonsai2.png,redwood or sequoia (choose one),NA,This is a,No problems,2,trees,susan,NA,bonsai,NA,Your turn! Please label the pictures below.,NA,NA,NA,NA,NA,NA,Thanks stay safe and good luck with your work,warmup/redwood2.png,NA,NA,NA,English,NA,NA,NA,1,1588869247727,1,NA,This is a,1,redwood,NA,NA,warmup1,NA,NA
2252,NA,eagle,NA,NA,35,warmup/eagle2.png,hummingbird,NA,This is a,No problems,2,birds,susan,NA,eagle,NA,Your turn! Please label the pictures below.,NA,NA,NA,NA,NA,NA,Thanks stay safe and good luck with your work,warmup/hummingbird2.png,NA,NA,NA,English,NA,NA,NA,2,1588869247727,1,NA,This is an,1,hummingbird,NA,NA,warmup1,NA,NA
2252,What do you think your friend is saying is it small relative to?,NA,images/hummingbird_filler.png,images/bird-parade-basic_filler.png,35,NA,NA,filler,NA,No problems,2,birds,susan,NA,NA,NA,Your friend goes ahead of you. You see your friend in the distance:,NA,pred,rescue,hummingbird,NA,hummingbirds,Thanks stay safe and good luck with your work,NA,NA,small,NA,English,NA,19515,You and your friend see the following:,1,1588869247727,NA,It is small relative to other,NA,1,NA,NA,congruent,custom_main_text1,small,Your friend says: <br/><b>That's a small hummingbird.</b>
2252,What do you think your friend is saying is it small relative to?,NA,images/bonsai_filler.png,images/tree-parade-basic_filler.png,35,NA,NA,filler,NA,No problems,2,trees,susan,NA,NA,NA,Your friend goes ahead of you. You see your friend in the distance:,NA,pred,landmark,bonsai,NA,bonsai,Thanks stay safe and good luck with your work,NA,NA,small,NA,English,NA,12147,You and your friend see the following:,2,1588869247727,NA,It is small relative to other,NA,1,NA,NA,congruent,custom_main_text1,small,Your friend says: <br/><b>That's a small bonsai.</b>
2252,What do you think your friend is saying is it big relative to?,NA,images/eagle.png,images/bird-parade-basic.png,35,NA,NA,critical,NA,No problems,2,birds,susan,NA,NA,NA,Your friend goes ahead of you. You see your friend in the distance:,NA,pred,rescue,eagle,NA,rescues,Thanks stay safe and good luck with your work,NA,NA,big,NA,English,NA,10989,You visit your friend who works at an animal shelter and you see the following:,3,1588869247727,NA,It is big relative to other,NA,1,NA,NA,congruent,custom_main_text1,big,Your friend says: <br/><b>That rescue is a big eagle.</b>
2252,What do you think your friend is saying is it big relative to?,NA,images/redwood_sign.png,images/tree-parade-basic.png,35,NA,NA,critical,NA,No problems,2,trees,susan,NA,NA,NA,Your friend goes ahead of you. You see your friend in the distance:,NA,subj,landmark,redwood,NA,landmarks,Thanks stay safe and good luck with your work,NA,NA,big,NA,English,NA,18210,You and your friend walk to your friend's cabin in a park for the first time. You want to memorize the path and you see the following:,4,1588869247727,NA,It is big relative to other,NA,1,NA,NA,congruent,custom_main_text1,big,Your friend says: <br/><b>That big redwood is a landmark.</b>
2252,NA,great dane,NA,NA,35,warmup/great-dane2.png,pug,NA,This is a,No problems,2,dogs2,susan,NA,great dane,NA,Your turn! Please label the pictures below.,NA,NA,NA,NA,NA,NA,Thanks stay safe and good luck with your work,warmup/pug2.png,NA,NA,NA,English,NA,NA,NA,1,1588869247727,1,NA,This is a,1,pug,NA,NA,warmup2,NA,NA
2252,NA,doberman,NA,NA,35,warmup/doberman2.png,chihuahua,NA,This is a,No problems,2,dogs1,susan,NA,doberman,NA,Your turn! Please label the pictures below.,NA,NA,NA,NA,NA,NA,Thanks stay safe and good luck with your work,warmup/chihuahua2.png,NA,NA,NA,English,NA,NA,NA,2,1588869247727,1,NA,This is a,1,chihuahua,NA,NA,warmup2,NA,NA
2252,What do you think your friend is saying is it big relative to?,NA,images/great-dane_filler.png,images/dog-parade-basic2_filler.png,35,NA,NA,filler,NA,No problems,2,dogs2,susan,NA,NA,NA,Your friend goes ahead of you. You see your friend in the distance:,NA,subj,prize-winner,Great Dane,NA,Great danes,Thanks stay safe and good luck with your work,NA,NA,big,NA,English,NA,10727,You and your friend see the following:,1,1588869247727,NA,It is big relative to other,NA,1,NA,NA,congruent,custom_main_text2,big,Your friend says: <br/><b>That Great Dane is big.</b>
2252,What do you think your friend is saying is it small relative to?,NA,images/pug.png,images/dog-parade-basic2.png,35,NA,NA,critical,NA,No problems,2,dogs2,susan,NA,NA,NA,Your friend goes ahead of you. You see your friend in the distance:,NA,pred,prize-winner,pug,NA,pugs,Thanks stay safe and good luck with your work,NA,NA,small,NA,English,NA,20597,You and your friend are at a pet show and you see the following:,2,1588869247727,NA,It is small relative to other,NA,1,NA,NA,congruent,custom_main_text2,small,Your friend says: <br/><b>That prize-winner is a small pug.</b>
2252,What do you think your friend is saying is it small relative to?,NA,images/chihuahua.png,images/dog-parade-basic.png,35,NA,NA,critical,NA,No problems,2,dogs1,susan,NA,NA,NA,Your friend goes ahead of you. You see your friend in the distance:,NA,subj,service animal,chihuahua,NA,chihuahuas,Thanks stay safe and good luck with your work,NA,NA,small,NA,English,NA,19919,You and your friend are at an animal training ground and you see the following:,3,1588869247727,NA,It is small relative to other,NA,1,NA,NA,congruent,custom_main_text2,small,Your friend says: <br/><b>That small chihuahua is a service animal.</b>
2252,What do you think your friend is saying is it big relative to?,NA,images/doberman_filler.png,images/dog-parade-basic_filler.png,35,NA,NA,filler,NA,No problems,2,dogs1,susan,NA,NA,NA,Your friend goes ahead of you. You see your friend in the distance:,NA,subj,service animal,doberman,NA,dobermans,Thanks stay safe and good luck with your work,NA,NA,big,NA,English,NA,8460,You and your friend see the following:,4,1588869247727,NA,It is big relative to other,NA,1,NA,NA,congruent,custom_main_text2,big,Your friend says: <br/><b>That doberman is big.</b>
2251,<i>What do you think Speaker A meant? </i>,NA,NA,NA,35,NA,NA,NA,NA,none,2,NA,elizabeth,1,NA,yes,NA,"<b> Speaker A: ""The Empire State Building is tall.""</b>",NA,NA,NA,44,other buildings,NA,NA,graduated_college,NA,comp_class_warmup,English,female,NA,In the main trials you will be asked to rephrase something a person said. The utterance will contain a word that is <i>relative</i> and your task is to figure out what it is relative to. <br /> <br /> For example: <br />,1,1588869125402,1,The Empire State Building is tall relative to other,NA,1,NA,"buildings, skyscrapers, houses, constructions (choose one)",NA,comp_class_warmup,NA,NA
2251,<i>What do you think Speaker A meant? </i>,NA,NA,NA,35,NA,NA,NA,NA,none,2,NA,elizabeth,1,NA,yes,NA,"<b> Speaker A: ""The Empire State Building is tall.""</b>",NA,NA,NA,44,buildings,NA,NA,graduated_college,NA,comp_class_warmup,English,female,NA,In the main trials you will be asked to rephrase something a person said. The utterance will contain a word that is <i>relative</i> and your task is to figure out what it is relative to. <br /> <br /> For example: <br />,1,1588869125402,2,The Empire State Building is tall relative to other,NA,1,NA,"buildings, skyscrapers, houses, constructions (choose one)",NA,comp_class_warmup,NA,NA
2251,NA,great dane,NA,NA,35,warmup/great-dane2.png,pug,NA,This is a,none,2,dogs2,elizabeth,NA,great dane,yes,Your turn! Please label the pictures below.,NA,NA,NA,NA,44,NA,NA,warmup/pug2.png,graduated_college,NA,NA,English,female,NA,NA,1,1588869125402,1,NA,This is a,1,pug,NA,NA,warmup1,NA,NA
2251,NA,bonsai,NA,NA,35,warmup/bonsai2.png,redwood or sequoia (choose one),NA,This is a,none,2,trees,elizabeth,NA,bonsai,yes,Your turn! Please label the pictures below.,NA,NA,NA,NA,44,NA,NA,warmup/redwood2.png,graduated_college,NA,NA,English,female,NA,NA,2,1588869125402,1,NA,This is a,1,red wood,NA,NA,warmup1,NA,NA
2251,NA,bonsai,NA,NA,35,warmup/bonsai2.png,redwood or sequoia (choose one),NA,This is a,none,2,trees,elizabeth,NA,bonsai,yes,Your turn! Please label the pictures below.,NA,NA,NA,NA,44,NA,NA,warmup/redwood2.png,graduated_college,NA,NA,English,female,NA,NA,2,1588869125402,2,NA,This is a,1,redwood,NA,NA,warmup1,NA,NA
2251,What do you think your friend is saying is it big relative to?,NA,images/redwood_filler.png,images/tree-parade-basic_filler.png,35,NA,NA,filler,NA,none,2,trees,elizabeth,NA,NA,yes,Your friend goes ahead of you. You see your friend in the distance:,NA,pred,landmark,redwood,44,trees,NA,NA,graduated_college,big,NA,English,female,11971,You and your friend see the following:,1,1588869125402,NA,It is big relative to other,NA,1,NA,NA,congruent,custom_main_text1,big,Your friend says: <br/><b>That's a big redwood.</b>
2251,What do you think your friend is saying is it small relative to?,NA,images/pug_filler.png,images/dog-parade-basic2_filler.png,35,NA,NA,filler,NA,none,2,dogs2,elizabeth,NA,NA,yes,Your friend goes ahead of you. You see your friend in the distance:,NA,subj,prize-winner,pug,44,dogs,NA,NA,graduated_college,small,NA,English,female,7300,You and your friend see the following:,2,1588869125402,NA,It is small relative to other,NA,1,NA,NA,congruent,custom_main_text1,small,Your friend says: <br/><b>That pug is small.</b>
2251,What do you think your friend is saying is it small relative to?,NA,images/bonsai_stick.png,images/tree-parade-basic.png,35,NA,NA,critical,NA,none,2,trees,elizabeth,NA,NA,yes,Your friend goes ahead of you. You see your friend in the distance:,NA,subj,landmark,bonsai,44,landmarks,NA,NA,graduated_college,small,NA,English,female,17687,You and your friend walk to your friend's cabin in a park for the first time. You want to memorize the path and you see the following:,3,1588869125402,NA,It is small relative to other,NA,1,NA,NA,congruent,custom_main_text1,small,Your friend says: <br/><b>That small bonsai is a landmark.</b>
2251,What do you think your friend is saying is it big relative to?,NA,images/great-dane.png,images/dog-parade-basic2.png,35,NA,NA,critical,NA,none,2,dogs2,elizabeth,NA,NA,yes,Your friend goes ahead of you. You see your friend in the distance:,NA,pred,prize-winner,Great Dane,44,prizewinners,NA,NA,graduated_college,big,NA,English,female,13353,You and your friend are at a pet show and you see the following:,4,1588869125402,NA,It is big relative to other,NA,1,NA,NA,congruent,custom_main_text1,big,Your friend says: <br/><b>That prize-winner is a big Great Dane.</b>
2251,NA,sunflower,NA,NA,35,warmup/sunflower2.png,dandelion,NA,This is a,none,2,flowers,elizabeth,NA,sunflower,yes,Your turn! Please label the pictures below.,NA,NA,NA,NA,44,NA,NA,warmup/dandelion2.png,graduated_college,NA,NA,English,female,NA,NA,1,1588869125402,1,NA,This is a,1,dandelion,NA,NA,warmup2,NA,NA
2251,NA,doberman,NA,NA,35,warmup/doberman2.png,chihuahua,NA,This is a,none,2,dogs1,elizabeth,NA,doberman,yes,Your turn! Please label the pictures below.,NA,NA,NA,NA,44,NA,NA,warmup/chihuahua2.png,graduated_college,NA,NA,English,female,NA,NA,2,1588869125402,1,NA,This is a,1,chihuahua,NA,NA,warmup2,NA,NA
2251,What do you think your friend is saying is it small relative to?,NA,images/dandelion_filler.png,images/flower-parade-basic_filler.png,35,NA,NA,filler,NA,none,2,flowers,elizabeth,NA,NA,yes,Your friend goes ahead of you. You see your friend in the distance:,NA,pred,gift,dandelion,44,flowers,NA,NA,graduated_college,small,NA,English,female,9697,You and your friend see the following:,1,1588869125402,NA,It is small relative to other,NA,1,NA,NA,congruent,custom_main_text2,small,Your friend says: <br/><b>That's a small dandelion.</b>
2251,What do you think your friend is saying is it big relative to?,NA,images/sunflower.png,images/flower-parade-basic.png,35,NA,NA,critical,NA,none,2,flowers,elizabeth,NA,NA,yes,Your friend goes ahead of you. You see your friend in the distance:,NA,subj,gift,sunflower,44,gifts,NA,NA,graduated_college,big,NA,English,female,8090,You and your friend are at their garden and you see the following:,2,1588869125402,NA,It is big relative to other,NA,1,NA,NA,congruent,custom_main_text2,big,Your friend says: <br/><b>That big sunflower is a gift.</b>
2251,What do you think your friend is saying is it small relative to?,NA,images/chihuahua.png,images/dog-parade-basic.png,35,NA,NA,critical,NA,none,2,dogs1,elizabeth,NA,NA,yes,Your friend goes ahead of you. You see your friend in the distance:,NA,pred,service animal,chihuahua,44,service animals,NA,NA,graduated_college,small,NA,English,female,11161,You and your friend are at an animal training ground and you see the following:,3,1588869125402,NA,It is small relative to other,NA,1,NA,NA,congruent,custom_main_text2,small,Your friend says: <br/><b>That service animal is a small chihuahua.</b>
2251,What do you think your friend is saying is it big relative to?,NA,images/doberman_filler.png,images/dog-parade-basic_filler.png,35,NA,NA,filler,NA,none,2,dogs1,elizabeth,NA,NA,yes,Your friend goes ahead of you. You see your friend in the distance:,NA,subj,service animal,doberman,44,dogs,NA,NA,graduated_college,big,NA,English,female,5230,You and your friend see the following:,4,1588869125402,NA,It is big relative to other,NA,1,NA,NA,congruent,custom_main_text2,big,Your friend says: <br/><b>That doberman is big.</b>
2250,<i>What do you think Speaker A meant? </i>,NA,NA,NA,35,NA,NA,NA,NA,None.,2,NA,Elizabeth,1,NA,yes,NA,"<b> Speaker A: ""The Empire State Building is tall.""</b>",NA,NA,NA,32,buildings.,NA,NA,graduated_college,NA,comp_class_warmup,English,male,NA,In the main trials you will be asked to rephrase something a person said. The utterance will contain a word that is <i>relative</i> and your task is to figure out what it is relative to. <br /> <br /> For example: <br />,1,1588868523254,1,The Empire State Building is tall relative to other,NA,1,NA,"buildings, skyscrapers, houses, constructions (choose one)",NA,comp_class_warmup,NA,NA
2250,<i>What do you think Speaker A meant? </i>,NA,NA,NA,35,NA,NA,NA,NA,None.,2,NA,Elizabeth,1,NA,yes,NA,"<b> Speaker A: ""The Empire State Building is tall.""</b>",NA,NA,NA,32,buildings,NA,NA,graduated_college,NA,comp_class_warmup,English,male,NA,In the main trials you will be asked to rephrase something a person said. The utterance will contain a word that is <i>relative</i> and your task is to figure out what it is relative to. <br /> <br /> For example: <br />,1,1588868523254,2,The Empire State Building is tall relative to other,NA,1,NA,"buildings, skyscrapers, houses, constructions (choose one)",NA,comp_class_warmup,NA,NA
2250,NA,bonsai,NA,NA,35,warmup/bonsai2.png,redwood or sequoia (choose one),NA,This is a,None.,2,trees,Elizabeth,NA,bonsai,yes,Your turn! Please label the pictures below.,NA,NA,NA,NA,32,NA,NA,warmup/redwood2.png,graduated_college,NA,NA,English,male,NA,NA,1,1588868523254,1,NA,This is a,1,redwood,NA,NA,warmup1,NA,NA
2250,NA,Great Dane,NA,NA,35,warmup/great-dane2.png,pug,NA,This is a,None.,2,dogs2,Elizabeth,NA,great dane,yes,Your turn! Please label the pictures below.,NA,NA,NA,NA,32,NA,NA,warmup/pug2.png,graduated_college,NA,NA,English,male,NA,NA,2,1588868523254,1,NA,This is a,1,pug,NA,NA,warmup1,NA,NA
2250,What do you think your friend is saying is it small relative to?,NA,images/pug_filler.png,images/dog-parade-basic2_filler.png,35,NA,NA,filler,NA,None.,2,dogs2,Elizabeth,NA,NA,yes,Your friend goes ahead of you. You see your friend in the distance:,NA,subj,prize-winner,pug,32,dogs,NA,NA,graduated_college,small,NA,English,male,13616,You and your friend see the following:,1,1588868523254,NA,It is small relative to other,NA,1,NA,NA,congruent,custom_main_text1,small,Your friend says: <br/><b>That pug is small.</b>
2250,What do you think your friend is saying is it small relative to?,NA,images/bonsai_stick.png,images/tree-parade-basic.png,35,NA,NA,critical,NA,None.,2,trees,Elizabeth,NA,NA,yes,Your friend goes ahead of you. You see your friend in the distance:,NA,subj,landmark,bonsai,32,landmarks,NA,NA,graduated_college,small,NA,English,male,20234,You and your friend walk to your friend's cabin in a park for the first time. You want to memorize the path and you see the following:,2,1588868523254,NA,It is small relative to other,NA,1,NA,NA,congruent,custom_main_text1,small,Your friend says: <br/><b>That small bonsai is a landmark.</b>
2250,What do you think your friend is saying is it big relative to?,NA,images/redwood_filler.png,images/tree-parade-basic_filler.png,35,NA,NA,filler,NA,None.,2,trees,Elizabeth,NA,NA,yes,Your friend goes ahead of you. You see your friend in the distance:,NA,pred,landmark,redwood,32,trees,NA,NA,graduated_college,big,NA,English,male,9464,You and your friend see the following:,3,1588868523254,NA,It is big relative to other,NA,1,NA,NA,congruent,custom_main_text1,big,Your friend says: <br/><b>That's a big redwood.</b>
2250,What do you think your friend is saying is it big relative to?,NA,images/great-dane.png,images/dog-parade-basic2.png,35,NA,NA,critical,NA,None.,2,dogs2,Elizabeth,NA,NA,yes,Your friend goes ahead of you. You see your friend in the distance:,NA,pred,prize-winner,Great Dane,32,dogs,NA,NA,graduated_college,big,NA,English,male,10876,You and your friend are at a pet show and you see the following:,4,1588868523254,NA,It is big relative to other,NA,1,NA,NA,congruent,custom_main_text1,big,Your friend says: <br/><b>That prize-winner is a big Great Dane.</b>
2250,NA,sunflower,NA,NA,35,warmup/sunflower2.png,dandelion,NA,This is a,None.,2,flowers,Elizabeth,NA,sunflower,yes,Your turn! Please label the pictures below.,NA,NA,NA,NA,32,NA,NA,warmup/dandelion2.png,graduated_college,NA,NA,English,male,NA,NA,1,1588868523254,1,NA,This is a,1,dandelion,NA,NA,warmup2,NA,NA
2250,NA,eagle,NA,NA,35,warmup/eagle2.png,hummingbird,NA,This is a,None.,2,birds,Elizabeth,NA,eagle,yes,Your turn! Please label the pictures below.,NA,NA,NA,NA,32,NA,NA,warmup/hummingbird2.png,graduated_college,NA,NA,English,male,NA,NA,2,1588868523254,1,NA,This is an,1,hummingbird,NA,NA,warmup2,NA,NA
2250,What do you think your friend is saying is it big relative to?,NA,images/eagle_filler.png,images/bird-parade-basic_filler.png,35,NA,NA,filler,NA,None.,2,birds,Elizabeth,NA,NA,yes,Your friend goes ahead of you. You see your friend in the distance:,NA,pred,rescue,eagle,32,birds,NA,NA,graduated_college,big,NA,English,male,9596,You and your friend see the following:,1,1588868523254,NA,It is big relative to other,NA,1,NA,NA,congruent,custom_main_text2,big,Your friend says: <br/><b>That's a big eagle.</b>
2250,What do you think your friend is saying is it big relative to?,NA,images/sunflower_filler.png,images/flower-parade-basic_filler.png,35,NA,NA,filler,NA,None.,2,flowers,Elizabeth,NA,NA,yes,Your friend goes ahead of you. You see your friend in the distance:,NA,subj,gift,sunflower,32,flowers,NA,NA,graduated_college,big,NA,English,male,9465,You and your friend see the following:,2,1588868523254,NA,It is big relative to other,NA,1,NA,NA,congruent,custom_main_text2,big,Your friend says: <br/><b>That sunflower is big.</b>
2250,What do you think your friend is saying is it small relative to?,NA,images/dandelion.png,images/flower-parade-basic.png,35,NA,NA,critical,NA,None.,2,flowers,Elizabeth,NA,NA,yes,Your friend goes ahead of you. You see your friend in the distance:,NA,pred,gift,dandelion,32,flowers,NA,NA,graduated_college,small,NA,English,male,6614,You and your friend are at their garden and you see the following:,3,1588868523254,NA,It is small relative to other,NA,1,NA,NA,congruent,custom_main_text2,small,Your friend says: <br/><b>That gift is a small dandelion.</b>
2250,What do you think your friend is saying is it small relative to?,NA,images/hummingbird.png,images/bird-parade-basic.png,35,NA,NA,critical,NA,None.,2,birds,Elizabeth,NA,NA,yes,Your friend goes ahead of you. You see your friend in the distance:,NA,subj,rescue,hummingbird,32,birds,NA,NA,graduated_college,small,NA,English,male,11401,You visit your friend who works at an animal shelter and you see the following:,4,1588868523254,NA,It is small relative to other,NA,1,NA,NA,congruent,custom_main_text2,small,Your friend says: <br/><b>That small hummingbird is a rescue.</b>
2249,<i>What do you think Speaker A meant? </i>,NA,NA,NA,35,NA,NA,NA,NA,Nope,1,NA,Margaret,1,NA,yes,NA,"<b> Speaker A: ""The Empire State Building is tall.""</b>",NA,NA,NA,38,buildings,Thanks!,NA,graduated_college,NA,comp_class_warmup,English,male,NA,In the main trials you will be asked to rephrase something a person said. The utterance will contain a word that is <i>relative</i> and your task is to figure out what it is relative to. <br /> <br /> For example: <br />,1,1588867986476,1,The Empire State Building is tall relative to other,NA,1,NA,"buildings, skyscrapers, houses, constructions (choose one)",NA,comp_class_warmup,NA,NA
2249,NA,sunflower,NA,NA,35,warmup/sunflower2.png,dandelion,NA,This is a,Nope,1,flowers,Margaret,NA,sunflower,yes,Your turn! Please label the pictures below.,NA,NA,NA,NA,38,NA,Thanks!,warmup/dandelion2.png,graduated_college,NA,NA,English,male,NA,NA,1,1588867986476,1,NA,This is a,1,dandelion,NA,NA,warmup1,NA,NA
2249,NA,bonsai,NA,NA,35,warmup/bonsai2.png,redwood or sequoia (choose one),NA,This is a,Nope,1,trees,Margaret,NA,bonsai,yes,Your turn! Please label the pictures below.,NA,NA,NA,NA,38,NA,Thanks!,warmup/redwood2.png,graduated_college,NA,NA,English,male,NA,NA,2,1588867986476,1,NA,This is a,1,redwood,NA,NA,warmup1,NA,NA
2249,What do you think your friend is saying is it big relative to?,NA,images/sunflower_filler.png,images/flower-parade-basic_filler.png,35,NA,NA,filler,NA,Nope,1,flowers,Margaret,NA,NA,yes,Your friend goes ahead of you. You see your friend in the distance:,NA,subj,gift,sunflower,38,flowers,Thanks!,NA,graduated_college,big,NA,English,male,5167,You and your friend see the following:,1,1588867986476,NA,It is big relative to other,NA,1,NA,NA,congruent,custom_main_text1,big,Your friend says: <br/><b>That sunflower is big.</b>
2249,What do you think your friend is saying is it small relative to?,NA,images/dandelion.png,images/flower-parade-basic.png,35,NA,NA,critical,NA,Nope,1,flowers,Margaret,NA,NA,yes,Your friend goes ahead of you. You see your friend in the distance:,NA,pred,gift,dandelion,38,flowers,Thanks!,NA,graduated_college,small,NA,English,male,7848,You and your friend are at their garden and you see the following:,2,1588867986476,NA,It is small relative to other,NA,1,NA,NA,congruent,custom_main_text1,small,Your friend says: <br/><b>That gift is a small dandelion.</b>
2249,What do you think your friend is saying is it big relative to?,NA,images/redwood_filler.png,images/tree-parade-basic_filler.png,35,NA,NA,filler,NA,Nope,1,trees,Margaret,NA,NA,yes,Your friend goes ahead of you. You see your friend in the distance:,NA,pred,landmark,redwood,38,trees,Thanks!,NA,graduated_college,big,NA,English,male,7248,You and your friend see the following:,3,1588867986476,NA,It is big relative to other,NA,1,NA,NA,congruent,custom_main_text1,big,Your friend says: <br/><b>That's a big redwood.</b>
2249,What do you think your friend is saying is it small relative to?,NA,images/bonsai_stick.png,images/tree-parade-basic.png,35,NA,NA,critical,NA,Nope,1,trees,Margaret,NA,NA,yes,Your friend goes ahead of you. You see your friend in the distance:,NA,pred,landmark,bonsai,38,landmarks,Thanks!,NA,graduated_college,small,NA,English,male,11391,You and your friend walk to your friend's cabin in a park for the first time. You want to memorize the path and you see the following:,4,1588867986476,NA,It is small relative to other,NA,1,NA,NA,congruent,custom_main_text1,small,Your friend says: <br/><b>That landmark is a small bonsai.</b>
2249,NA,great dane,NA,NA,35,warmup/great-dane2.png,pug,NA,This is a,Nope,1,dogs2,Margaret,NA,great dane,yes,Your turn! Please label the pictures below.,NA,NA,NA,NA,38,NA,Thanks!,warmup/pug2.png,graduated_college,NA,NA,English,male,NA,NA,1,1588867986476,1,NA,This is a,1,pug,NA,NA,warmup2,NA,NA
2249,NA,doberman,NA,NA,35,warmup/doberman2.png,chihuahua,NA,This is a,Nope,1,dogs1,Margaret,NA,doberman,yes,Your turn! Please label the pictures below.,NA,NA,NA,NA,38,NA,Thanks!,warmup/chihuahua2.png,graduated_college,NA,NA,English,male,NA,NA,2,1588867986476,1,NA,This is a,1,chihuahua,NA,NA,warmup2,NA,NA
2249,What do you think your friend is saying is it small relative to?,NA,images/pug_filler.png,images/dog-parade-basic2_filler.png,35,NA,NA,filler,NA,Nope,1,dogs2,Margaret,NA,NA,yes,Your friend goes ahead of you. You see your friend in the distance:,NA,subj,prize-winner,pug,38,dogs,Thanks!,NA,graduated_college,small,NA,English,male,4259,You and your friend see the following:,1,1588867986476,NA,It is small relative to other,NA,1,NA,NA,congruent,custom_main_text2,small,Your friend says: <br/><b>That pug is small.</b>
2249,What do you think your friend is saying is it big relative to?,NA,images/great-dane.png,images/dog-parade-basic2.png,35,NA,NA,critical,NA,Nope,1,dogs2,Margaret,NA,NA,yes,Your friend goes ahead of you. You see your friend in the distance:,NA,subj,prize-winner,Great Dane,38,prize winnders,Thanks!,NA,graduated_college,big,NA,English,male,15540,You and your friend are at a pet show and you see the following:,2,1588867986476,NA,It is big relative to other,NA,1,NA,NA,congruent,custom_main_text2,big,Your friend says: <br/><b>That big Great Dane is a prize-winner.</b>
2249,What do you think your friend is saying is it small relative to?,NA,images/chihuahua.png,images/dog-parade-basic.png,35,NA,NA,critical,NA,Nope,1,dogs1,Margaret,NA,NA,yes,Your friend goes ahead of you. You see your friend in the distance:,NA,subj,service animal,chihuahua,38,dogs,Thanks!,NA,graduated_college,small,NA,English,male,60295,You and your friend are at an animal training ground and you see the following:,3,1588867986476,NA,It is small relative to other,NA,1,NA,NA,congruent,custom_main_text2,small,Your friend says: <br/><b>That small chihuahua is a service animal.</b>
2249,What do you think your friend is saying is it big relative to?,NA,images/doberman_filler.png,images/dog-parade-basic_filler.png,35,NA,NA,filler,NA,Nope,1,dogs1,Margaret,NA,NA,yes,Your friend goes ahead of you. You see your friend in the distance:,NA,pred,service animal,doberman,38,dogs,Thanks!,NA,graduated_college,big,NA,English,male,3610,You and your friend see the following:,4,1588867986476,NA,It is big relative to other,NA,1,NA,NA,congruent,custom_main_text2,big,Your friend says: <br/><b>That's a big doberman.</b>
2248,<i>What do you think Speaker A meant? </i>,NA,NA,NA,35,NA,NA,NA,NA,No issues.,2,NA,Jennifer,1,NA,yes,NA,"<b> Speaker A: ""The Empire State Building is tall.""</b>",NA,NA,NA,39,buildings,NA,NA,graduated_college,NA,comp_class_warmup,English,male,NA,In the main trials you will be asked to rephrase something a person said. The utterance will contain a word that is <i>relative</i> and your task is to figure out what it is relative to. <br /> <br /> For example: <br />,1,1588867589432,1,The Empire State Building is tall relative to other,NA,1,NA,"buildings, skyscrapers, houses, constructions (choose one)",NA,comp_class_warmup,NA,NA
2248,NA,eagle,NA,NA,35,warmup/eagle2.png,hummingbird,NA,This is a,No issues.,2,birds,Jennifer,NA,eagle,yes,Your turn! Please label the pictures below.,NA,NA,NA,NA,39,NA,NA,warmup/hummingbird2.png,graduated_college,NA,NA,English,male,NA,NA,1,1588867589432,1,NA,This is an,1,hummingbird,NA,NA,warmup1,NA,NA
2248,NA,bonsai,NA,NA,35,warmup/bonsai2.png,redwood or sequoia (choose one),NA,This is a,No issues.,2,trees,Jennifer,NA,bonsai,yes,Your turn! Please label the pictures below.,NA,NA,NA,NA,39,NA,NA,warmup/redwood2.png,graduated_college,NA,NA,English,male,NA,NA,2,1588867589432,1,NA,This is a,1,redwood,NA,NA,warmup1,NA,NA
2248,What do you think your friend is saying is it big relative to?,NA,images/redwood_filler.png,images/tree-parade-basic_filler.png,35,NA,NA,filler,NA,No issues.,2,trees,Jennifer,NA,NA,yes,Your friend goes ahead of you. You see your friend in the distance:,NA,subj,landmark,redwood,39,trees,NA,NA,graduated_college,big,NA,English,male,7518,You and your friend see the following:,1,1588867589432,NA,It is big relative to other,NA,1,NA,NA,congruent,custom_main_text1,big,Your friend says: <br/><b>That redwood is big.</b>
2248,What do you think your friend is saying is it big relative to?,NA,images/eagle_filler.png,images/bird-parade-basic_filler.png,35,NA,NA,filler,NA,No issues.,2,birds,Jennifer,NA,NA,yes,Your friend goes ahead of you. You see your friend in the distance:,NA,subj,rescue,eagle,39,birds,NA,NA,graduated_college,big,NA,English,male,5808,You and your friend see the following:,2,1588867589432,NA,It is big relative to other,NA,1,NA,NA,congruent,custom_main_text1,big,Your friend says: <br/><b>That eagle is big.</b>
2248,What do you think your friend is saying is it small relative to?,NA,images/hummingbird.png,images/bird-parade-basic.png,35,NA,NA,critical,NA,No issues.,2,birds,Jennifer,NA,NA,yes,Your friend goes ahead of you. You see your friend in the distance:,NA,pred,rescue,hummingbird,39,hummingbirds,NA,NA,graduated_college,small,NA,English,male,10787,You visit your friend who works at an animal shelter and you see the following:,3,1588867589432,NA,It is small relative to other,NA,1,NA,NA,congruent,custom_main_text1,small,Your friend says: <br/><b>That rescue is a small hummingbird.</b>
2248,What do you think your friend is saying is it small relative to?,NA,images/bonsai_stick.png,images/tree-parade-basic.png,35,NA,NA,critical,NA,No issues.,2,trees,Jennifer,NA,NA,yes,Your friend goes ahead of you. You see your friend in the distance:,NA,subj,landmark,bonsai,39,landmarks,NA,NA,graduated_college,small,NA,English,male,8899,You and your friend walk to your friend's cabin in a park for the first time. You want to memorize the path and you see the following:,4,1588867589432,NA,It is small relative to other,NA,1,NA,NA,congruent,custom_main_text1,small,Your friend says: <br/><b>That small bonsai is a landmark.</b>
2248,NA,doberman,NA,NA,35,warmup/doberman2.png,chihuahua,NA,This is a,No issues.,2,dogs1,Jennifer,NA,doberman,yes,Your turn! Please label the pictures below.,NA,NA,NA,NA,39,NA,NA,warmup/chihuahua2.png,graduated_college,NA,NA,English,male,NA,NA,1,1588867589432,1,NA,This is a,1,chihuaha,NA,NA,warmup2,NA,NA
2248,NA,doberman,NA,NA,35,warmup/doberman2.png,chihuahua,NA,This is a,No issues.,2,dogs1,Jennifer,NA,doberman,yes,Your turn! Please label the pictures below.,NA,NA,NA,NA,39,NA,NA,warmup/chihuahua2.png,graduated_college,NA,NA,English,male,NA,NA,1,1588867589432,2,NA,This is a,1,chihuahua,NA,NA,warmup2,NA,NA
2248,NA,sunflower,NA,NA,35,warmup/sunflower2.png,dandelion,NA,This is a,No issues.,2,flowers,Jennifer,NA,sunflower,yes,Your turn! Please label the pictures below.,NA,NA,NA,NA,39,NA,NA,warmup/dandelion2.png,graduated_college,NA,NA,English,male,NA,NA,2,1588867589432,1,NA,This is a,1,dandelion,NA,NA,warmup2,NA,NA
2248,What do you think your friend is saying is it small relative to?,NA,images/dandelion_filler.png,images/flower-parade-basic_filler.png,35,NA,NA,filler,NA,No issues.,2,flowers,Jennifer,NA,NA,yes,Your friend goes ahead of you. You see your friend in the distance:,NA,pred,gift,dandelion,39,flowers,NA,NA,graduated_college,small,NA,English,male,12572,You and your friend see the following:,1,1588867589432,NA,It is small relative to other,NA,1,NA,NA,congruent,custom_main_text2,small,Your friend says: <br/><b>That's a small dandelion.</b>
2248,What do you think your friend is saying is it small relative to?,NA,images/chihuahua.png,images/dog-parade-basic.png,35,NA,NA,critical,NA,No issues.,2,dogs1,Jennifer,NA,NA,yes,Your friend goes ahead of you. You see your friend in the distance:,NA,subj,service animal,chihuahua,39,service animals,NA,NA,graduated_college,small,NA,English,male,4988,You and your friend are at an animal training ground and you see the following:,2,1588867589432,NA,It is small relative to other,NA,1,NA,NA,congruent,custom_main_text2,small,Your friend says: <br/><b>That small chihuahua is a service animal.</b>
2248,What do you think your friend is saying is it big relative to?,NA,images/sunflower.png,images/flower-parade-basic.png,35,NA,NA,critical,NA,No issues.,2,flowers,Jennifer,NA,NA,yes,Your friend goes ahead of you. You see your friend in the distance:,NA,pred,gift,sunflower,39,gifts,NA,NA,graduated_college,big,NA,English,male,7278,You and your friend are at their garden and you see the following:,3,1588867589432,NA,It is big relative to other,NA,1,NA,NA,congruent,custom_main_text2,big,Your friend says: <br/><b>That gift is a big sunflower.</b>
2248,What do you think your friend is saying is it big relative to?,NA,images/doberman_filler.png,images/dog-parade-basic_filler.png,35,NA,NA,filler,NA,No issues.,2,dogs1,Jennifer,NA,NA,yes,Your friend goes ahead of you. You see your friend in the distance:,NA,pred,service animal,doberman,39,dogs,NA,NA,graduated_college,big,NA,English,male,5551,You and your friend see the following:,4,1588867589432,NA,It is big relative to other,NA,1,NA,NA,congruent,custom_main_text2,big,Your friend says: <br/><b>That's a big doberman.</b>
2247,<i>What do you think Speaker A meant? </i>,NA,NA,NA,35,NA,NA,NA,NA,none,1,NA,Jennifer,1,NA,yes,NA,"<b> Speaker A: ""The Empire State Building is tall.""</b>",NA,NA,NA,26,buildings,NA,NA,graduated_high_school,NA,comp_class_warmup,english,male,NA,In the main trials you will be asked to rephrase something a person said. The utterance will contain a word that is <i>relative</i> and your task is to figure out what it is relative to. <br /> <br /> For example: <br />,1,1588867356687,1,The Empire State Building is tall relative to other,NA,1.5,NA,"buildings, skyscrapers, houses, constructions (choose one)",NA,comp_class_warmup,NA,NA
2247,NA,bonsai,NA,NA,35,warmup/bonsai2.png,redwood or sequoia (choose one),NA,This is a,none,1,trees,Jennifer,NA,bonsai,yes,Your turn! Please label the pictures below.,NA,NA,NA,NA,26,NA,NA,warmup/redwood2.png,graduated_high_school,NA,NA,english,male,NA,NA,1,1588867356687,1,NA,This is a,1.5,red wood,NA,NA,warmup1,NA,NA
2247,NA,bonsai,NA,NA,35,warmup/bonsai2.png,redwood or sequoia (choose one),NA,This is a,none,1,trees,Jennifer,NA,bonsai,yes,Your turn! Please label the pictures below.,NA,NA,NA,NA,26,NA,NA,warmup/redwood2.png,graduated_high_school,NA,NA,english,male,NA,NA,1,1588867356687,2,NA,This is a,1.5,redwood,NA,NA,warmup1,NA,NA
2247,NA,eagle,NA,NA,35,warmup/eagle2.png,hummingbird,NA,This is a,none,1,birds,Jennifer,NA,eagle,yes,Your turn! Please label the pictures below.,NA,NA,NA,NA,26,NA,NA,warmup/hummingbird2.png,graduated_high_school,NA,NA,english,male,NA,NA,2,1588867356687,1,NA,This is an,1.5,hummingbird,NA,NA,warmup1,NA,NA
2247,What do you think your friend is saying is it small relative to?,NA,images/hummingbird_filler.png,images/bird-parade-basic_filler.png,35,NA,NA,filler,NA,none,1,birds,Jennifer,NA,NA,yes,Your friend goes ahead of you. You see your friend in the distance:,NA,subj,rescue,hummingbird,26,birds,NA,NA,graduated_high_school,small,NA,english,male,12815,You and your friend see the following:,1,1588867356687,NA,It is small relative to other,NA,1.5,NA,NA,congruent,custom_main_text1,small,Your friend says: <br/><b>That hummingbird is small.</b>
2247,What do you think your friend is saying is it big relative to?,NA,images/eagle.png,images/bird-parade-basic.png,35,NA,NA,critical,NA,none,1,birds,Jennifer,NA,NA,yes,Your friend goes ahead of you. You see your friend in the distance:,NA,subj,rescue,eagle,26,birds,NA,NA,graduated_high_school,big,NA,english,male,14314,You visit your friend who works at an animal shelter and you see the following:,2,1588867356687,NA,It is big relative to other,NA,1.5,NA,NA,congruent,custom_main_text1,big,Your friend says: <br/><b>That big eagle is a rescue.</b>
2247,What do you think your friend is saying is it small relative to?,NA,images/bonsai_stick.png,images/tree-parade-basic.png,35,NA,NA,critical,NA,none,1,trees,Jennifer,NA,NA,yes,Your friend goes ahead of you. You see your friend in the distance:,NA,pred,landmark,bonsai,26,landmarks,NA,NA,graduated_high_school,small,NA,english,male,11160,You and your friend walk to your friend's cabin in a park for the first time. You want to memorize the path and you see the following:,3,1588867356687,NA,It is small relative to other,NA,1.5,NA,NA,congruent,custom_main_text1,small,Your friend says: <br/><b>That landmark is a small bonsai.</b>
2247,What do you think your friend is saying is it big relative to?,NA,images/redwood_filler.png,images/tree-parade-basic_filler.png,35,NA,NA,filler,NA,none,1,trees,Jennifer,NA,NA,yes,Your friend goes ahead of you. You see your friend in the distance:,NA,pred,landmark,redwood,26,landmarks,NA,NA,graduated_high_school,big,NA,english,male,7644,You and your friend see the following:,4,1588867356687,NA,It is big relative to other,NA,1.5,NA,NA,congruent,custom_main_text1,big,Your friend says: <br/><b>That's a big redwood.</b>
2247,NA,great dane,NA,NA,35,warmup/great-dane2.png,pug,NA,This is a,none,1,dogs2,Jennifer,NA,great dane,yes,Your turn! Please label the pictures below.,NA,NA,NA,NA,26,NA,NA,warmup/pug2.png,graduated_high_school,NA,NA,english,male,NA,NA,1,1588867356687,1,NA,This is a,1.5,pug,NA,NA,warmup2,NA,NA
2247,NA,doberman,NA,NA,35,warmup/doberman2.png,chihuahua,NA,This is a,none,1,dogs1,Jennifer,NA,doberman,yes,Your turn! Please label the pictures below.,NA,NA,NA,NA,26,NA,NA,warmup/chihuahua2.png,graduated_high_school,NA,NA,english,male,NA,NA,2,1588867356687,1,NA,This is a,1.5,chihuahu,NA,NA,warmup2,NA,NA
2247,NA,doberman,NA,NA,35,warmup/doberman2.png,chihuahua,NA,This is a,none,1,dogs1,Jennifer,NA,doberman,yes,Your turn! Please label the pictures below.,NA,NA,NA,NA,26,NA,NA,warmup/chihuahua2.png,graduated_high_school,NA,NA,english,male,NA,NA,2,1588867356687,2,NA,This is a,1.5,chihuahua,NA,NA,warmup2,NA,NA
2247,What do you think your friend is saying is it big relative to?,NA,images/doberman_filler.png,images/dog-parade-basic_filler.png,35,NA,NA,filler,NA,none,1,dogs1,Jennifer,NA,NA,yes,Your friend goes ahead of you. You see your friend in the distance:,NA,pred,service animal,doberman,26,service dogs,NA,NA,graduated_high_school,big,NA,english,male,14016,You and your friend see the following:,1,1588867356687,NA,It is big relative to other,NA,1.5,NA,NA,congruent,custom_main_text2,big,Your friend says: <br/><b>That's a big doberman.</b>
2247,What do you think your friend is saying is it big relative to?,NA,images/great-dane.png,images/dog-parade-basic2.png,35,NA,NA,critical,NA,none,1,dogs2,Jennifer,NA,NA,yes,Your friend goes ahead of you. You see your friend in the distance:,NA,pred,prize-winner,Great Dane,26,dogs,NA,NA,graduated_high_school,big,NA,english,male,7827,You and your friend are at a pet show and you see the following:,2,1588867356687,NA,It is big relative to other,NA,1.5,NA,NA,congruent,custom_main_text2,big,Your friend says: <br/><b>That prize-winner is a big Great Dane.</b>
2247,What do you think your friend is saying is it small relative to?,NA,images/chihuahua.png,images/dog-parade-basic.png,35,NA,NA,critical,NA,none,1,dogs1,Jennifer,NA,NA,yes,Your friend goes ahead of you. You see your friend in the distance:,NA,subj,service animal,chihuahua,26,dogs,NA,NA,graduated_high_school,small,NA,english,male,7586,You and your friend are at an animal training ground and you see the following:,3,1588867356687,NA,It is small relative to other,NA,1.5,NA,NA,congruent,custom_main_text2,small,Your friend says: <br/><b>That small chihuahua is a service animal.</b>
2247,What do you think your friend is saying is it small relative to?,NA,images/pug_filler.png,images/dog-parade-basic2_filler.png,35,NA,NA,filler,NA,none,1,dogs2,Jennifer,NA,NA,yes,Your friend goes ahead of you. You see your friend in the distance:,NA,subj,prize-winner,pug,26,dogs,NA,NA,graduated_high_school,small,NA,english,male,4569,You and your friend see the following:,4,1588867356687,NA,It is small relative to other,NA,1.5,NA,NA,congruent,custom_main_text2,small,Your friend says: <br/><b>That pug is small.</b>
2246,<i>What do you think Speaker A meant? </i>,NA,NA,NA,35,NA,NA,NA,NA,No,2,NA,Patricia,1,NA,NA,NA,"<b> Speaker A: ""The Empire State Building is tall.""</b>",NA,NA,NA,NA,buildings,NA,NA,NA,NA,comp_class_warmup,English,NA,NA,In the main trials you will be asked to rephrase something a person said. The utterance will contain a word that is <i>relative</i> and your task is to figure out what it is relative to. <br /> <br /> For example: <br />,1,1588866371864,1,The Empire State Building is tall relative to other,NA,1,NA,"buildings, skyscrapers, houses, constructions (choose one)",NA,comp_class_warmup,NA,NA
2246,NA,bonsai,NA,NA,35,warmup/bonsai2.png,redwood or sequoia (choose one),NA,This is a,No,2,trees,Patricia,NA,bonsai,NA,Your turn! Please label the pictures below.,NA,NA,NA,NA,NA,NA,NA,warmup/redwood2.png,NA,NA,NA,English,NA,NA,NA,1,1588866371864,1,NA,This is a,1,redwood,NA,NA,warmup1,NA,NA
2246,NA,sunflower,NA,NA,35,warmup/sunflower2.png,dandelion,NA,This is a,No,2,flowers,Patricia,NA,sunflower,NA,Your turn! Please label the pictures below.,NA,NA,NA,NA,NA,NA,NA,warmup/dandelion2.png,NA,NA,NA,English,NA,NA,NA,2,1588866371864,1,NA,This is a,1,dandilion,NA,NA,warmup1,NA,NA
2246,NA,sunflower,NA,NA,35,warmup/sunflower2.png,dandelion,NA,This is a,No,2,flowers,Patricia,NA,sunflower,NA,Your turn! Please label the pictures below.,NA,NA,NA,NA,NA,NA,NA,warmup/dandelion2.png,NA,NA,NA,English,NA,NA,NA,2,1588866371864,2,NA,This is a,1,dandelion,NA,NA,warmup1,NA,NA
2246,What do you think your friend is saying is it big relative to?,NA,images/redwood_filler.png,images/tree-parade-basic_filler.png,35,NA,NA,filler,NA,No,2,trees,Patricia,NA,NA,NA,Your friend goes ahead of you. You see your friend in the distance:,NA,subj,landmark,redwood,NA,trees,NA,NA,NA,big,NA,English,NA,12054,You and your friend see the following:,1,1588866371864,NA,It is big relative to other,NA,1,NA,NA,congruent,custom_main_text1,big,Your friend says: <br/><b>That redwood is big.</b>
2246,What do you think your friend is saying is it small relative to?,NA,images/dandelion.png,images/flower-parade-basic.png,35,NA,NA,critical,NA,No,2,flowers,Patricia,NA,NA,NA,Your friend goes ahead of you. You see your friend in the distance:,NA,subj,gift,dandelion,NA,plants,NA,NA,NA,small,NA,English,NA,14210,You and your friend are at their garden and you see the following:,2,1588866371864,NA,It is small relative to other,NA,1,NA,NA,congruent,custom_main_text1,small,Your friend says: <br/><b>That small dandelion is a gift.</b>
2246,What do you think your friend is saying is it big relative to?,NA,images/sunflower_filler.png,images/flower-parade-basic_filler.png,35,NA,NA,filler,NA,No,2,flowers,Patricia,NA,NA,NA,Your friend goes ahead of you. You see your friend in the distance:,NA,pred,gift,sunflower,NA,flowers,NA,NA,NA,big,NA,English,NA,8828,You and your friend see the following:,3,1588866371864,NA,It is big relative to other,NA,1,NA,NA,congruent,custom_main_text1,big,Your friend says: <br/><b>That's a big sunflower.</b>
2246,What do you think your friend is saying is it small relative to?,NA,images/bonsai_stick.png,images/tree-parade-basic.png,35,NA,NA,critical,NA,No,2,trees,Patricia,NA,NA,NA,Your friend goes ahead of you. You see your friend in the distance:,NA,pred,landmark,bonsai,NA,trees,NA,NA,NA,small,NA,English,NA,10807,You and your friend walk to your friend's cabin in a park for the first time. You want to memorize the path and you see the following:,4,1588866371864,NA,It is small relative to other,NA,1,NA,NA,congruent,custom_main_text1,small,Your friend says: <br/><b>That landmark is a small bonsai.</b>
2246,NA,eagle,NA,NA,35,warmup/eagle2.png,hummingbird,NA,This is a,No,2,birds,Patricia,NA,eagle,NA,Your turn! Please label the pictures below.,NA,NA,NA,NA,NA,NA,NA,warmup/hummingbird2.png,NA,NA,NA,English,NA,NA,NA,1,1588866371864,1,NA,This is an,1,hummingbird,NA,NA,warmup2,NA,NA
2246,NA,doberman,NA,NA,35,warmup/doberman2.png,chihuahua,NA,This is a,No,2,dogs1,Patricia,NA,doberman,NA,Your turn! Please label the pictures below.,NA,NA,NA,NA,NA,NA,NA,warmup/chihuahua2.png,NA,NA,NA,English,NA,NA,NA,2,1588866371864,1,NA,This is a,1,chihuahua,NA,NA,warmup2,NA,NA
2246,What do you think your friend is saying is it small relative to?,NA,images/hummingbird_filler.png,images/bird-parade-basic_filler.png,35,NA,NA,filler,NA,No,2,birds,Patricia,NA,NA,NA,Your friend goes ahead of you. You see your friend in the distance:,NA,pred,rescue,hummingbird,NA,birds,NA,NA,NA,small,NA,English,NA,15016,You and your friend see the following:,1,1588866371864,NA,It is small relative to other,NA,1,NA,NA,congruent,custom_main_text2,small,Your friend says: <br/><b>That's a small hummingbird.</b>
2246,What do you think your friend is saying is it big relative to?,NA,images/doberman.png,images/dog-parade-basic.png,35,NA,NA,critical,NA,No,2,dogs1,Patricia,NA,NA,NA,Your friend goes ahead of you. You see your friend in the distance:,NA,subj,service animal,doberman,NA,dogs,NA,NA,NA,big,NA,English,NA,9734,You and your friend are at an animal training ground and you see the following:,2,1588866371864,NA,It is big relative to other,NA,1,NA,NA,congruent,custom_main_text2,big,Your friend says: <br/><b>That big doberman is a service animal.</b>
2246,What do you think your friend is saying is it big relative to?,NA,images/eagle.png,images/bird-parade-basic.png,35,NA,NA,critical,NA,No,2,birds,Patricia,NA,NA,NA,Your friend goes ahead of you. You see your friend in the distance:,NA,pred,rescue,eagle,NA,rescues,NA,NA,NA,big,NA,English,NA,8200,You visit your friend who works at an animal shelter and you see the following:,3,1588866371864,NA,It is big relative to other,NA,1,NA,NA,congruent,custom_main_text2,big,Your friend says: <br/><b>That rescue is a big eagle.</b>
2246,What do you think your friend is saying is it small relative to?,NA,images/chihuahua_filler.png,images/dog-parade-basic_filler.png,35,NA,NA,filler,NA,No,2,dogs1,Patricia,NA,NA,NA,Your friend goes ahead of you. You see your friend in the distance:,NA,subj,service animal,chihuahua,NA,dogs,NA,NA,NA,small,NA,English,NA,6375,You and your friend see the following:,4,1588866371864,NA,It is small relative to other,NA,1,NA,NA,congruent,custom_main_text2,small,Your friend says: <br/><b>That chihuahua is small.</b>
2245,<i>What do you think Speaker A meant? </i>,NA,NA,NA,35,NA,NA,NA,NA,no,1,NA,Linda,1,NA,NA,NA,"<b> Speaker A: ""The Empire State Building is tall.""</b>",NA,NA,NA,NA,The empire state building is tall,nice,NA,graduated_college,NA,comp_class_warmup,English,NA,NA,In the main trials you will be asked to rephrase something a person said. The utterance will contain a word that is <i>relative</i> and your task is to figure out what it is relative to. <br /> <br /> For example: <br />,1,1588866883e3,1,The Empire State Building is tall relative to other,NA,1,NA,"buildings, skyscrapers, houses, constructions (choose one)",NA,comp_class_warmup,NA,NA
2245,<i>What do you think Speaker A meant? </i>,NA,NA,NA,35,NA,NA,NA,NA,no,1,NA,Linda,1,NA,NA,NA,"<b> Speaker A: ""The Empire State Building is tall.""</b>",NA,NA,NA,NA,building,nice,NA,graduated_college,NA,comp_class_warmup,English,NA,NA,In the main trials you will be asked to rephrase something a person said. The utterance will contain a word that is <i>relative</i> and your task is to figure out what it is relative to. <br /> <br /> For example: <br />,1,1588866883e3,2,The Empire State Building is tall relative to other,NA,1,NA,"buildings, skyscrapers, houses, constructions (choose one)",NA,comp_class_warmup,NA,NA
2245,NA,chichu,NA,NA,35,warmup/doberman2.png,chihuahua,NA,This is a,no,1,dogs1,Linda,NA,doberman,NA,Your turn! Please label the pictures below.,NA,NA,NA,NA,NA,NA,nice,warmup/chihuahua2.png,graduated_college,NA,NA,English,NA,NA,NA,1,1588866883e3,1,NA,This is a,1,chichu,NA,NA,warmup1,NA,NA
2245,NA,doberman,NA,NA,35,warmup/doberman2.png,chihuahua,NA,This is a,no,1,dogs1,Linda,NA,doberman,NA,Your turn! Please label the pictures below.,NA,NA,NA,NA,NA,NA,nice,warmup/chihuahua2.png,graduated_college,NA,NA,English,NA,NA,NA,1,1588866883e3,2,NA,This is a,1,chihuahua,NA,NA,warmup1,NA,NA
2245,NA,great,NA,NA,35,warmup/great-dane2.png,pug,NA,This is a,no,1,dogs2,Linda,NA,great dane,NA,Your turn! Please label the pictures below.,NA,NA,NA,NA,NA,NA,nice,warmup/pug2.png,graduated_college,NA,NA,English,NA,NA,NA,2,1588866883e3,1,NA,This is a,1,pug,NA,NA,warmup1,NA,NA
2245,NA,great dane,NA,NA,35,warmup/great-dane2.png,pug,NA,This is a,no,1,dogs2,Linda,NA,great dane,NA,Your turn! Please label the pictures below.,NA,NA,NA,NA,NA,NA,nice,warmup/pug2.png,graduated_college,NA,NA,English,NA,NA,NA,2,1588866883e3,2,NA,This is a,1,pug,NA,NA,warmup1,NA,NA
2245,What do you think your friend is saying is it big relative to?,NA,images/doberman_filler.png,images/dog-parade-basic_filler.png,35,NA,NA,filler,NA,no,1,dogs1,Linda,NA,NA,NA,Your friend goes ahead of you. You see your friend in the distance:,NA,subj,service animal,doberman,NA,big,nice,NA,graduated_college,big,NA,English,NA,13993,You and your friend see the following:,1,1588866883e3,NA,It is big relative to other,NA,1,NA,NA,congruent,custom_main_text1,big,Your friend says: <br/><b>That doberman is big.</b>
2245,What do you think your friend is saying is it big relative to?,NA,images/great-dane_filler.png,images/dog-parade-basic2_filler.png,35,NA,NA,filler,NA,no,1,dogs2,Linda,NA,NA,NA,Your friend goes ahead of you. You see your friend in the distance:,NA,subj,prize-winner,Great Dane,NA,human,nice,NA,graduated_college,big,NA,English,NA,9322,You and your friend see the following:,2,1588866883e3,NA,It is big relative to other,NA,1,NA,NA,congruent,custom_main_text1,big,Your friend says: <br/><b>That Great Dane is big.</b>
2245,What do you think your friend is saying is it small relative to?,NA,images/chihuahua.png,images/dog-parade-basic.png,35,NA,NA,critical,NA,no,1,dogs1,Linda,NA,NA,NA,Your friend goes ahead of you. You see your friend in the distance:,NA,pred,service animal,chihuahua,NA,pug,nice,NA,graduated_college,small,NA,English,NA,7318,You and your friend are at an animal training ground and you see the following:,3,1588866883e3,NA,It is small relative to other,NA,1,NA,NA,congruent,custom_main_text1,small,Your friend says: <br/><b>That service animal is a small chihuahua.</b>
2245,What do you think your friend is saying is it small relative to?,NA,images/pug.png,images/dog-parade-basic2.png,35,NA,NA,critical,NA,no,1,dogs2,Linda,NA,NA,NA,Your friend goes ahead of you. You see your friend in the distance:,NA,pred,prize-winner,pug,NA,chichu,nice,NA,graduated_college,small,NA,English,NA,7380,You and your friend are at a pet show and you see the following:,4,1588866883e3,NA,It is small relative to other,NA,1,NA,NA,congruent,custom_main_text1,small,Your friend says: <br/><b>That prize-winner is a small pug.</b>
2245,NA,eggel,NA,NA,35,warmup/eagle2.png,hummingbird,NA,This is a,no,1,birds,Linda,NA,eagle,NA,Your turn! Please label the pictures below.,NA,NA,NA,NA,NA,NA,nice,warmup/hummingbird2.png,graduated_college,NA,NA,English,NA,NA,NA,1,1588866883e3,1,NA,This is an,1,sparrow,NA,NA,warmup2,NA,NA
2245,NA,eagle,NA,NA,35,warmup/eagle2.png,hummingbird,NA,This is a,no,1,birds,Linda,NA,eagle,NA,Your turn! Please label the pictures below.,NA,NA,NA,NA,NA,NA,nice,warmup/hummingbird2.png,graduated_college,NA,NA,English,NA,NA,NA,1,1588866883e3,2,NA,This is an,1,hummingbird,NA,NA,warmup2,NA,NA
2245,NA,sun,NA,NA,35,warmup/sunflower2.png,dandelion,NA,This is a,no,1,flowers,Linda,NA,sunflower,NA,Your turn! Please label the pictures below.,NA,NA,NA,NA,NA,NA,nice,warmup/dandelion2.png,graduated_college,NA,NA,English,NA,NA,NA,2,1588866883e3,1,NA,This is a,1,flower,NA,NA,warmup2,NA,NA
2245,NA,sunflower,NA,NA,35,warmup/sunflower2.png,dandelion,NA,This is a,no,1,flowers,Linda,NA,sunflower,NA,Your turn! Please label the pictures below.,NA,NA,NA,NA,NA,NA,nice,warmup/dandelion2.png,graduated_college,NA,NA,English,NA,NA,NA,2,1588866883e3,2,NA,This is a,1,dandelion,NA,NA,warmup2,NA,NA
2245,What do you think your friend is saying is it small relative to?,NA,images/dandelion_filler.png,images/flower-parade-basic_filler.png,35,NA,NA,filler,NA,no,1,flowers,Linda,NA,NA,NA,Your friend goes ahead of you. You see your friend in the distance:,NA,pred,gift,dandelion,NA,dandelion,nice,NA,graduated_college,small,NA,English,NA,9471,You and your friend see the following:,1,1588866883e3,NA,It is small relative to other,NA,1,NA,NA,congruent,custom_main_text2,small,Your friend says: <br/><b>That's a small dandelion.</b>
2245,What do you think your friend is saying is it small relative to?,NA,images/hummingbird.png,images/bird-parade-basic.png,35,NA,NA,critical,NA,no,1,birds,Linda,NA,NA,NA,Your friend goes ahead of you. You see your friend in the distance:,NA,subj,rescue,hummingbird,NA,egale,nice,NA,graduated_college,small,NA,English,NA,8466,You visit your friend who works at an animal shelter and you see the following:,2,1588866883e3,NA,It is small relative to other,NA,1,NA,NA,congruent,custom_main_text2,small,Your friend says: <br/><b>That small hummingbird is a rescue.</b>
2245,What do you think your friend is saying is it big relative to?,NA,images/sunflower.png,images/flower-parade-basic.png,35,NA,NA,critical,NA,no,1,flowers,Linda,NA,NA,NA,Your friend goes ahead of you. You see your friend in the distance:,NA,subj,gift,sunflower,NA,flower,nice,NA,graduated_college,big,NA,English,NA,7039,You and your friend are at their garden and you see the following:,3,1588866883e3,NA,It is big relative to other,NA,1,NA,NA,congruent,custom_main_text2,big,Your friend says: <br/><b>That big sunflower is a gift.</b>
2245,What do you think your friend is saying is it big relative to?,NA,images/eagle_filler.png,images/bird-parade-basic_filler.png,35,NA,NA,filler,NA,no,1,birds,Linda,NA,NA,NA,Your friend goes ahead of you. You see your friend in the distance:,NA,pred,rescue,eagle,NA,eagle,nice,NA,graduated_college,big,NA,English,NA,7716,You and your friend see the following:,4,1588866883e3,NA,It is big relative to other,NA,1,NA,NA,congruent,custom_main_text2,big,Your friend says: <br/><b>That's a big eagle.</b>
2244,<i>What do you think Speaker A meant? </i>,NA,NA,NA,35,NA,NA,NA,NA,Everything good,1,NA,Jessica,1,NA,NA,NA,"<b> Speaker A: ""The Empire State Building is tall.""</b>",NA,NA,NA,28,Tallest,Nice study,NA,graduated_college,NA,comp_class_warmup,English,female,NA,In the main trials you will be asked to rephrase something a person said. The utterance will contain a word that is <i>relative</i> and your task is to figure out what it is relative to. <br /> <br /> For example: <br />,1,1588866631620,1,The Empire State Building is tall relative to other,NA,0.98,NA,"buildings, skyscrapers, houses, constructions (choose one)",NA,comp_class_warmup,NA,NA
2244,<i>What do you think Speaker A meant? </i>,NA,NA,NA,35,NA,NA,NA,NA,Everything good,1,NA,Jessica,1,NA,NA,NA,"<b> Speaker A: ""The Empire State Building is tall.""</b>",NA,NA,NA,28,House,Nice study,NA,graduated_college,NA,comp_class_warmup,English,female,NA,In the main trials you will be asked to rephrase something a person said. The utterance will contain a word that is <i>relative</i> and your task is to figure out what it is relative to. <br /> <br /> For example: <br />,1,1588866631620,2,The Empire State Building is tall relative to other,NA,0.98,NA,"buildings, skyscrapers, houses, constructions (choose one)",NA,comp_class_warmup,NA,NA
2244,NA,Great Dan,NA,NA,35,warmup/great-dane2.png,pug,NA,This is a,Everything good,1,dogs2,Jessica,NA,great dane,NA,Your turn! Please label the pictures below.,NA,NA,NA,NA,28,NA,Nice study,warmup/pug2.png,graduated_college,NA,NA,English,female,NA,NA,1,1588866631620,1,NA,This is a,0.98,Pug,NA,NA,warmup1,NA,NA
2244,NA,Great Dane,NA,NA,35,warmup/great-dane2.png,pug,NA,This is a,Everything good,1,dogs2,Jessica,NA,great dane,NA,Your turn! Please label the pictures below.,NA,NA,NA,NA,28,NA,Nice study,warmup/pug2.png,graduated_college,NA,NA,English,female,NA,NA,1,1588866631620,2,NA,This is a,0.98,Pug,NA,NA,warmup1,NA,NA
2244,NA,eagle,NA,NA,35,warmup/eagle2.png,hummingbird,NA,This is a,Everything good,1,birds,Jessica,NA,eagle,NA,Your turn! Please label the pictures below.,NA,NA,NA,NA,28,NA,Nice study,warmup/hummingbird2.png,graduated_college,NA,NA,English,female,NA,NA,2,1588866631620,1,NA,This is an,0.98,hummingbird,NA,NA,warmup1,NA,NA
2244,What do you think your friend is saying is it big relative to?,NA,images/eagle_filler.png,images/bird-parade-basic_filler.png,35,NA,NA,filler,NA,Everything good,1,birds,Jessica,NA,NA,NA,Your friend goes ahead of you. You see your friend in the distance:,NA,pred,rescue,eagle,28,eagle,Nice study,NA,graduated_college,big,NA,English,female,49304,You and your friend see the following:,1,1588866631620,NA,It is big relative to other,NA,0.98,NA,NA,congruent,custom_main_text1,big,Your friend says: <br/><b>That's a big eagle.</b>
2244,What do you think your friend is saying is it small relative to?,NA,images/pug_filler.png,images/dog-parade-basic2_filler.png,35,NA,NA,filler,NA,Everything good,1,dogs2,Jessica,NA,NA,NA,Your friend goes ahead of you. You see your friend in the distance:,NA,pred,prize-winner,pug,28,great dane,Nice study,NA,graduated_college,small,NA,English,female,19438,You and your friend see the following:,2,1588866631620,NA,It is small relative to other,NA,0.98,NA,NA,congruent,custom_main_text1,small,Your friend says: <br/><b>That's a small pug.</b>
2244,What do you think your friend is saying is it small relative to?,NA,images/hummingbird.png,images/bird-parade-basic.png,35,NA,NA,critical,NA,Everything good,1,birds,Jessica,NA,NA,NA,Your friend goes ahead of you. You see your friend in the distance:,NA,pred,rescue,hummingbird,28,himmingbird,Nice study,NA,graduated_college,small,NA,English,female,10222,You visit your friend who works at an animal shelter and you see the following:,3,1588866631620,NA,It is small relative to other,NA,0.98,NA,NA,congruent,custom_main_text1,small,Your friend says: <br/><b>That rescue is a small hummingbird.</b>
2244,What do you think your friend is saying is it big relative to?,NA,images/great-dane.png,images/dog-parade-basic2.png,35,NA,NA,critical,NA,Everything good,1,dogs2,Jessica,NA,NA,NA,Your friend goes ahead of you. You see your friend in the distance:,NA,subj,prize-winner,Great Dane,28,pug,Nice study,NA,graduated_college,big,NA,English,female,10192,You and your friend are at a pet show and you see the following:,4,1588866631620,NA,It is big relative to other,NA,0.98,NA,NA,congruent,custom_main_text1,big,Your friend says: <br/><b>That big Great Dane is a prize-winner.</b>
2244,NA,doberman,NA,NA,35,warmup/doberman2.png,chihuahua,NA,This is a,Everything good,1,dogs1,Jessica,NA,doberman,NA,Your turn! Please label the pictures below.,NA,NA,NA,NA,28,NA,Nice study,warmup/chihuahua2.png,graduated_college,NA,NA,English,female,NA,NA,1,1588866631620,1,NA,This is a,0.98,chihuahua,NA,NA,warmup2,NA,NA
2244,NA,sunflower,NA,NA,35,warmup/sunflower2.png,dandelion,NA,This is a,Everything good,1,flowers,Jessica,NA,sunflower,NA,Your turn! Please label the pictures below.,NA,NA,NA,NA,28,NA,Nice study,warmup/dandelion2.png,graduated_college,NA,NA,English,female,NA,NA,2,1588866631620,1,NA,This is a,0.98,dandelion,NA,NA,warmup2,NA,NA
2244,What do you think your friend is saying is it small relative to?,NA,images/chihuahua_filler.png,images/dog-parade-basic_filler.png,35,NA,NA,filler,NA,Everything good,1,dogs1,Jessica,NA,NA,NA,Your friend goes ahead of you. You see your friend in the distance:,NA,subj,service animal,chihuahua,28,doberman,Nice study,NA,graduated_college,small,NA,English,female,32776,You and your friend see the following:,1,1588866631620,NA,It is small relative to other,NA,0.98,NA,NA,congruent,custom_main_text2,small,Your friend says: <br/><b>That chihuahua is small.</b>
2244,What do you think your friend is saying is it big relative to?,NA,images/sunflower.png,images/flower-parade-basic.png,35,NA,NA,critical,NA,Everything good,1,flowers,Jessica,NA,NA,NA,Your friend goes ahead of you. You see your friend in the distance:,NA,subj,gift,sunflower,28,dandelion,Nice study,NA,graduated_college,big,NA,English,female,20160,You and your friend are at their garden and you see the following:,2,1588866631620,NA,It is big relative to other,NA,0.98,NA,NA,congruent,custom_main_text2,big,Your friend says: <br/><b>That big sunflower is a gift.</b>
2244,What do you think your friend is saying is it big relative to?,NA,images/doberman.png,images/dog-parade-basic.png,35,NA,NA,critical,NA,Everything good,1,dogs1,Jessica,NA,NA,NA,Your friend goes ahead of you. You see your friend in the distance:,NA,pred,service animal,doberman,28,chihuahua,Nice study,NA,graduated_college,big,NA,English,female,27431,You and your friend are at an animal training ground and you see the following:,3,1588866631620,NA,It is big relative to other,NA,0.98,NA,NA,congruent,custom_main_text2,big,Your friend says: <br/><b>That service animal is a big doberman.</b>
2244,What do you think your friend is saying is it small relative to?,NA,images/dandelion_filler.png,images/flower-parade-basic_filler.png,35,NA,NA,filler,NA,Everything good,1,flowers,Jessica,NA,NA,NA,Your friend goes ahead of you. You see your friend in the distance:,NA,subj,gift,dandelion,28,sunflower,Nice study,NA,graduated_college,small,NA,English,female,12968,You and your friend see the following:,4,1588866631620,NA,It is small relative to other,NA,0.98,NA,NA,congruent,custom_main_text2,small,Your friend says: <br/><b>That dandelion is small.</b>
2243,<i>What do you think Speaker A meant? </i>,NA,NA,NA,35,NA,NA,NA,NA,no,2,NA,linda,1,NA,yes,NA,"<b> Speaker A: ""The Empire State Building is tall.""</b>",NA,NA,NA,42,buildings,none,NA,graduated_college,NA,comp_class_warmup,English,female,NA,In the main trials you will be asked to rephrase something a person said. The utterance will contain a word that is <i>relative</i> and your task is to figure out what it is relative to. <br /> <br /> For example: <br />,1,1588866925570,1,The Empire State Building is tall relative to other,NA,NA,NA,"buildings, skyscrapers, houses, constructions (choose one)",NA,comp_class_warmup,NA,NA
2243,NA,great dane,NA,NA,35,warmup/great-dane2.png,pug,NA,This is a,no,2,dogs2,linda,NA,great dane,yes,Your turn! Please label the pictures below.,NA,NA,NA,NA,42,NA,none,warmup/pug2.png,graduated_college,NA,NA,English,female,NA,NA,1,1588866925570,1,NA,This is a,NA,pug,NA,NA,warmup1,NA,NA
2243,NA,bonsai,NA,NA,35,warmup/bonsai2.png,redwood or sequoia (choose one),NA,This is a,no,2,trees,linda,NA,bonsai,yes,Your turn! Please label the pictures below.,NA,NA,NA,NA,42,NA,none,warmup/redwood2.png,graduated_college,NA,NA,English,female,NA,NA,2,1588866925570,1,NA,This is a,NA,redwood,NA,NA,warmup1,NA,NA
2243,What do you think your friend is saying is it small relative to?,NA,images/bonsai_filler.png,images/tree-parade-basic_filler.png,35,NA,NA,filler,NA,no,2,trees,linda,NA,NA,yes,Your friend goes ahead of you. You see your friend in the distance:,NA,pred,landmark,bonsai,42,other trees,none,NA,graduated_college,small,NA,English,female,8773,You and your friend see the following:,1,1588866925570,NA,It is small relative to other,NA,NA,NA,NA,congruent,custom_main_text1,small,Your friend says: <br/><b>That's a small bonsai.</b>
2243,What do you think your friend is saying is it small relative to?,NA,images/pug.png,images/dog-parade-basic2.png,35,NA,NA,critical,NA,no,2,dogs2,linda,NA,NA,yes,Your friend goes ahead of you. You see your friend in the distance:,NA,pred,prize-winner,pug,42,dogs,none,NA,graduated_college,small,NA,English,female,7064,You and your friend are at a pet show and you see the following:,2,1588866925570,NA,It is small relative to other,NA,NA,NA,NA,congruent,custom_main_text1,small,Your friend says: <br/><b>That prize-winner is a small pug.</b>
2243,What do you think your friend is saying is it big relative to?,NA,images/redwood_sign.png,images/tree-parade-basic.png,35,NA,NA,critical,NA,no,2,trees,linda,NA,NA,yes,Your friend goes ahead of you. You see your friend in the distance:,NA,subj,landmark,redwood,42,everything,none,NA,graduated_college,big,NA,English,female,10672,You and your friend walk to your friend's cabin in a park for the first time. You want to memorize the path and you see the following:,3,1588866925570,NA,It is big relative to other,NA,NA,NA,NA,congruent,custom_main_text1,big,Your friend says: <br/><b>That big redwood is a landmark.</b>
2243,What do you think your friend is saying is it big relative to?,NA,images/great-dane_filler.png,images/dog-parade-basic2_filler.png,35,NA,NA,filler,NA,no,2,dogs2,linda,NA,NA,yes,Your friend goes ahead of you. You see your friend in the distance:,NA,subj,prize-winner,Great Dane,42,dogs,none,NA,graduated_college,big,NA,English,female,5153,You and your friend see the following:,4,1588866925570,NA,It is big relative to other,NA,NA,NA,NA,congruent,custom_main_text1,big,Your friend says: <br/><b>That Great Dane is big.</b>
2243,NA,doberman,NA,NA,35,warmup/doberman2.png,chihuahua,NA,This is a,no,2,dogs1,linda,NA,doberman,yes,Your turn! Please label the pictures below.,NA,NA,NA,NA,42,NA,none,warmup/chihuahua2.png,graduated_college,NA,NA,English,female,NA,NA,1,1588866925570,1,NA,This is a,NA,chihuahua,NA,NA,warmup2,NA,NA
2243,NA,eagle,NA,NA,35,warmup/eagle2.png,hummingbird,NA,This is a,no,2,birds,linda,NA,eagle,yes,Your turn! Please label the pictures below.,NA,NA,NA,NA,42,NA,none,warmup/hummingbird2.png,graduated_college,NA,NA,English,female,NA,NA,2,1588866925570,1,NA,This is an,NA,hummingbird,NA,NA,warmup2,NA,NA
2243,What do you think your friend is saying is it small relative to?,NA,images/hummingbird_filler.png,images/bird-parade-basic_filler.png,35,NA,NA,filler,NA,no,2,birds,linda,NA,NA,yes,Your friend goes ahead of you. You see your friend in the distance:,NA,pred,rescue,hummingbird,42,bird,none,NA,graduated_college,small,NA,English,female,8588,You and your friend see the following:,1,1588866925570,NA,It is small relative to other,NA,NA,NA,NA,congruent,custom_main_text2,small,Your friend says: <br/><b>That's a small hummingbird.</b>
2243,What do you think your friend is saying is it big relative to?,NA,images/doberman.png,images/dog-parade-basic.png,35,NA,NA,critical,NA,no,2,dogs1,linda,NA,NA,yes,Your friend goes ahead of you. You see your friend in the distance:,NA,pred,service animal,doberman,42,dogs,none,NA,graduated_college,big,NA,English,female,11867,You and your friend are at an animal training ground and you see the following:,2,1588866925570,NA,It is big relative to other,NA,NA,NA,NA,congruent,custom_main_text2,big,Your friend says: <br/><b>That service animal is a big doberman.</b>
2243,What do you think your friend is saying is it big relative to?,NA,images/eagle.png,images/bird-parade-basic.png,35,NA,NA,critical,NA,no,2,birds,linda,NA,NA,yes,Your friend goes ahead of you. You see your friend in the distance:,NA,subj,rescue,eagle,42,birds,none,NA,graduated_college,big,NA,English,female,12211,You visit your friend who works at an animal shelter and you see the following:,3,1588866925570,NA,It is big relative to other,NA,NA,NA,NA,congruent,custom_main_text2,big,Your friend says: <br/><b>That big eagle is a rescue.</b>
2243,What do you think your friend is saying is it small relative to?,NA,images/chihuahua_filler.png,images/dog-parade-basic_filler.png,35,NA,NA,filler,NA,no,2,dogs1,linda,NA,NA,yes,Your friend goes ahead of you. You see your friend in the distance:,NA,subj,service animal,chihuahua,42,dogs,none,NA,graduated_college,small,NA,English,female,4770,You and your friend see the following:,4,1588866925570,NA,It is small relative to other,NA,NA,NA,NA,congruent,custom_main_text2,small,Your friend says: <br/><b>That chihuahua is small.</b>
2242,<i>What do you think Speaker A meant? </i>,NA,NA,NA,35,NA,NA,NA,NA,no,2,NA,elizabeth,1,NA,yes,NA,"<b> Speaker A: ""The Empire State Building is tall.""</b>",NA,NA,NA,22,buildings,NA,NA,graduated_college,NA,comp_class_warmup,English,female,NA,In the main trials you will be asked to rephrase something a person said. The utterance will contain a word that is <i>relative</i> and your task is to figure out what it is relative to. <br /> <br /> For example: <br />,1,1588866365399,1,The Empire State Building is tall relative to other,NA,1,NA,"buildings, skyscrapers, houses, constructions (choose one)",NA,comp_class_warmup,NA,NA
2242,NA,bonsai,NA,NA,35,warmup/bonsai2.png,redwood or sequoia (choose one),NA,This is a,no,2,trees,elizabeth,NA,bonsai,yes,Your turn! Please label the pictures below.,NA,NA,NA,NA,22,NA,NA,warmup/redwood2.png,graduated_college,NA,NA,English,female,NA,NA,1,1588866365399,1,NA,This is a,1,redwood,NA,NA,warmup1,NA,NA
2242,NA,doberman,NA,NA,35,warmup/doberman2.png,chihuahua,NA,This is a,no,2,dogs1,elizabeth,NA,doberman,yes,Your turn! Please label the pictures below.,NA,NA,NA,NA,22,NA,NA,warmup/chihuahua2.png,graduated_college,NA,NA,English,female,NA,NA,2,1588866365399,1,NA,This is a,1,chihuahua,NA,NA,warmup1,NA,NA
2242,What do you think your friend is saying is it big relative to?,NA,images/redwood_filler.png,images/tree-parade-basic_filler.png,35,NA,NA,filler,NA,no,2,trees,elizabeth,NA,NA,yes,Your friend goes ahead of you. You see your friend in the distance:,NA,subj,landmark,redwood,22,trees,NA,NA,graduated_college,big,NA,English,female,9863,You and your friend see the following:,1,1588866365399,NA,It is big relative to other,NA,1,NA,NA,congruent,custom_main_text1,big,Your friend says: <br/><b>That redwood is big.</b>
2242,What do you think your friend is saying is it big relative to?,NA,images/doberman.png,images/dog-parade-basic.png,35,NA,NA,critical,NA,no,2,dogs1,elizabeth,NA,NA,yes,Your friend goes ahead of you. You see your friend in the distance:,NA,pred,service animal,doberman,22,service dogs,NA,NA,graduated_college,big,NA,English,female,7831,You and your friend are at an animal training ground and you see the following:,2,1588866365399,NA,It is big relative to other,NA,1,NA,NA,congruent,custom_main_text1,big,Your friend says: <br/><b>That service animal is a big doberman.</b>
2242,What do you think your friend is saying is it small relative to?,NA,images/bonsai_stick.png,images/tree-parade-basic.png,35,NA,NA,critical,NA,no,2,trees,elizabeth,NA,NA,yes,Your friend goes ahead of you. You see your friend in the distance:,NA,pred,landmark,bonsai,22,landmarks,NA,NA,graduated_college,small,NA,English,female,8669,You and your friend walk to your friend's cabin in a park for the first time. You want to memorize the path and you see the following:,3,1588866365399,NA,It is small relative to other,NA,1,NA,NA,congruent,custom_main_text1,small,Your friend says: <br/><b>That landmark is a small bonsai.</b>
2242,What do you think your friend is saying is it small relative to?,NA,images/chihuahua_filler.png,images/dog-parade-basic_filler.png,35,NA,NA,filler,NA,no,2,dogs1,elizabeth,NA,NA,yes,Your friend goes ahead of you. You see your friend in the distance:,NA,pred,service animal,chihuahua,22,dogs,NA,NA,graduated_college,small,NA,English,female,6584,You and your friend see the following:,4,1588866365399,NA,It is small relative to other,NA,1,NA,NA,congruent,custom_main_text1,small,Your friend says: <br/><b>That's a small chihuahua.</b>
2242,NA,sunflower,NA,NA,35,warmup/sunflower2.png,dandelion,NA,This is a,no,2,flowers,elizabeth,NA,sunflower,yes,Your turn! Please label the pictures below.,NA,NA,NA,NA,22,NA,NA,warmup/dandelion2.png,graduated_college,NA,NA,English,female,NA,NA,1,1588866365399,1,NA,This is a,1,dandelion,NA,NA,warmup2,NA,NA
2242,NA,Great Dane,NA,NA,35,warmup/great-dane2.png,pug,NA,This is a,no,2,dogs2,elizabeth,NA,great dane,yes,Your turn! Please label the pictures below.,NA,NA,NA,NA,22,NA,NA,warmup/pug2.png,graduated_college,NA,NA,English,female,NA,NA,2,1588866365399,1,NA,This is a,1,pug,NA,NA,warmup2,NA,NA
2242,What do you think your friend is saying is it small relative to?,NA,images/pug_filler.png,images/dog-parade-basic2_filler.png,35,NA,NA,filler,NA,no,2,dogs2,elizabeth,NA,NA,yes,Your friend goes ahead of you. You see your friend in the distance:,NA,pred,prize-winner,pug,22,prize winners,NA,NA,graduated_college,small,NA,English,female,8690,You and your friend see the following:,1,1588866365399,NA,It is small relative to other,NA,1,NA,NA,congruent,custom_main_text2,small,Your friend says: <br/><b>That's a small pug.</b>
2242,What do you think your friend is saying is it big relative to?,NA,images/great-dane.png,images/dog-parade-basic2.png,35,NA,NA,critical,NA,no,2,dogs2,elizabeth,NA,NA,yes,Your friend goes ahead of you. You see your friend in the distance:,NA,subj,prize-winner,Great Dane,22,prize winners,NA,NA,graduated_college,big,NA,English,female,9281,You and your friend are at a pet show and you see the following:,2,1588866365399,NA,It is big relative to other,NA,1,NA,NA,congruent,custom_main_text2,big,Your friend says: <br/><b>That big Great Dane is a prize-winner.</b>
2242,What do you think your friend is saying is it small relative to?,NA,images/dandelion_filler.png,images/flower-parade-basic_filler.png,35,NA,NA,filler,NA,no,2,flowers,elizabeth,NA,NA,yes,Your friend goes ahead of you. You see your friend in the distance:,NA,subj,gift,dandelion,22,gifts,NA,NA,graduated_college,small,NA,English,female,4804,You and your friend see the following:,3,1588866365399,NA,It is small relative to other,NA,1,NA,NA,congruent,custom_main_text2,small,Your friend says: <br/><b>That dandelion is small.</b>
2242,What do you think your friend is saying is it big relative to?,NA,images/sunflower.png,images/flower-parade-basic.png,35,NA,NA,critical,NA,no,2,flowers,elizabeth,NA,NA,yes,Your friend goes ahead of you. You see your friend in the distance:,NA,subj,gift,sunflower,22,gifts,NA,NA,graduated_college,big,NA,English,female,6146,You and your friend are at their garden and you see the following:,4,1588866365399,NA,It is big relative to other,NA,1,NA,NA,congruent,custom_main_text2,big,Your friend says: <br/><b>That big sunflower is a gift.</b>
2241,<i>What do you think Speaker A meant? </i>,NA,NA,NA,35,NA,NA,NA,NA,nothing,2,NA,linda,1,NA,yes,NA,"<b> Speaker A: ""The Empire State Building is tall.""</b>",NA,NA,NA,47,building,nothing,NA,graduated_college,NA,comp_class_warmup,english,male,NA,In the main trials you will be asked to rephrase something a person said. The utterance will contain a word that is <i>relative</i> and your task is to figure out what it is relative to. <br /> <br /> For example: <br />,1,1588866491731,1,The Empire State Building is tall relative to other,NA,0.1,NA,"buildings, skyscrapers, houses, constructions (choose one)",NA,comp_class_warmup,NA,NA
2241,NA,eagle,NA,NA,35,warmup/eagle2.png,hummingbird,NA,This is a,nothing,2,birds,linda,NA,eagle,yes,Your turn! Please label the pictures below.,NA,NA,NA,NA,47,NA,nothing,warmup/hummingbird2.png,graduated_college,NA,NA,english,male,NA,NA,1,1588866491731,1,NA,This is an,0.1,humbr,NA,NA,warmup1,NA,NA
2241,NA,eagle,NA,NA,35,warmup/eagle2.png,hummingbird,NA,This is a,nothing,2,birds,linda,NA,eagle,yes,Your turn! Please label the pictures below.,NA,NA,NA,NA,47,NA,nothing,warmup/hummingbird2.png,graduated_college,NA,NA,english,male,NA,NA,1,1588866491731,2,NA,This is an,0.1,hummingbir,NA,NA,warmup1,NA,NA
2241,NA,eagle,NA,NA,35,warmup/eagle2.png,hummingbird,NA,This is a,nothing,2,birds,linda,NA,eagle,yes,Your turn! Please label the pictures below.,NA,NA,NA,NA,47,NA,nothing,warmup/hummingbird2.png,graduated_college,NA,NA,english,male,NA,NA,1,1588866491731,3,NA,This is an,0.1,hummingbir,NA,NA,warmup1,NA,NA
2241,NA,eagle,NA,NA,35,warmup/eagle2.png,hummingbird,NA,This is a,nothing,2,birds,linda,NA,eagle,yes,Your turn! Please label the pictures below.,NA,NA,NA,NA,47,NA,nothing,warmup/hummingbird2.png,graduated_college,NA,NA,english,male,NA,NA,1,1588866491731,4,NA,This is an,0.1,hummingbir,NA,NA,warmup1,NA,NA
2241,NA,eagle,NA,NA,35,warmup/eagle2.png,hummingbird,NA,This is a,nothing,2,birds,linda,NA,eagle,yes,Your turn! Please label the pictures below.,NA,NA,NA,NA,47,NA,nothing,warmup/hummingbird2.png,graduated_college,NA,NA,english,male,NA,NA,1,1588866491731,5,NA,This is an,0.1,hummingbir,NA,NA,warmup1,NA,NA
2241,NA,eagle,NA,NA,35,warmup/eagle2.png,hummingbird,NA,This is a,nothing,2,birds,linda,NA,eagle,yes,Your turn! Please label the pictures below.,NA,NA,NA,NA,47,NA,nothing,warmup/hummingbird2.png,graduated_college,NA,NA,english,male,NA,NA,1,1588866491731,6,NA,This is an,0.1,hummingbird,NA,NA,warmup1,NA,NA
2241,NA,sunflower,NA,NA,35,warmup/sunflower2.png,dandelion,NA,This is a,nothing,2,flowers,linda,NA,sunflower,yes,Your turn! Please label the pictures below.,NA,NA,NA,NA,47,NA,nothing,warmup/dandelion2.png,graduated_college,NA,NA,english,male,NA,NA,2,1588866491731,1,NA,This is a,0.1,dandelion,NA,NA,warmup1,NA,NA
2241,What do you think your friend is saying is it small relative to?,NA,images/hummingbird_filler.png,images/bird-parade-basic_filler.png,35,NA,NA,filler,NA,nothing,2,birds,linda,NA,NA,yes,Your friend goes ahead of you. You see your friend in the distance:,NA,pred,rescue,hummingbird,47,eagle,nothing,NA,graduated_college,small,NA,english,male,27959,You and your friend see the following:,1,1588866491731,NA,It is small relative to other,NA,0.1,NA,NA,congruent,custom_main_text1,small,Your friend says: <br/><b>That's a small hummingbird.</b>
2241,What do you think your friend is saying is it big relative to?,NA,images/eagle.png,images/bird-parade-basic.png,35,NA,NA,critical,NA,nothing,2,birds,linda,NA,NA,yes,Your friend goes ahead of you. You see your friend in the distance:,NA,subj,rescue,eagle,47,hummbird,nothing,NA,graduated_college,big,NA,english,male,19214,You visit your friend who works at an animal shelter and you see the following:,2,1588866491731,NA,It is big relative to other,NA,0.1,NA,NA,congruent,custom_main_text1,big,Your friend says: <br/><b>That big eagle is a rescue.</b>
2241,What do you think your friend is saying is it small relative to?,NA,images/dandelion.png,images/flower-parade-basic.png,35,NA,NA,critical,NA,nothing,2,flowers,linda,NA,NA,yes,Your friend goes ahead of you. You see your friend in the distance:,NA,subj,gift,dandelion,47,sunflower,nothing,NA,graduated_college,small,NA,english,male,15240,You and your friend are at their garden and you see the following:,3,1588866491731,NA,It is small relative to other,NA,0.1,NA,NA,congruent,custom_main_text1,small,Your friend says: <br/><b>That small dandelion is a gift.</b>
2241,What do you think your friend is saying is it big relative to?,NA,images/sunflower_filler.png,images/flower-parade-basic_filler.png,35,NA,NA,filler,NA,nothing,2,flowers,linda,NA,NA,yes,Your friend goes ahead of you. You see your friend in the distance:,NA,pred,gift,sunflower,47,dandelion,nothing,NA,graduated_college,big,NA,english,male,31233,You and your friend see the following:,4,1588866491731,NA,It is big relative to other,NA,0.1,NA,NA,congruent,custom_main_text1,big,Your friend says: <br/><b>That's a big sunflower.</b>
2241,NA,bonsai,NA,NA,35,warmup/bonsai2.png,redwood or sequoia (choose one),NA,This is a,nothing,2,trees,linda,NA,bonsai,yes,Your turn! Please label the pictures below.,NA,NA,NA,NA,47,NA,nothing,warmup/redwood2.png,graduated_college,NA,NA,english,male,NA,NA,1,1588866491731,1,NA,This is a,0.1,redwood,NA,NA,warmup2,NA,NA
2241,NA,great don,NA,NA,35,warmup/great-dane2.png,pug,NA,This is a,nothing,2,dogs2,linda,NA,great dane,yes,Your turn! Please label the pictures below.,NA,NA,NA,NA,47,NA,nothing,warmup/pug2.png,graduated_college,NA,NA,english,male,NA,NA,2,1588866491731,1,NA,This is a,0.1,pug,NA,NA,warmup2,NA,NA
2241,NA,great dane,NA,NA,35,warmup/great-dane2.png,pug,NA,This is a,nothing,2,dogs2,linda,NA,great dane,yes,Your turn! Please label the pictures below.,NA,NA,NA,NA,47,NA,nothing,warmup/pug2.png,graduated_college,NA,NA,english,male,NA,NA,2,1588866491731,2,NA,This is a,0.1,pug,NA,NA,warmup2,NA,NA
