submission_id,question,startDate,target_picture,context_picture,experiment_id,trial_type,problems,enjoyment,item,botresponse,trials,option2,option1,understand,text,sentence,syntax,ref_np,target,age,response,comments,education,target_size,name,languages,sex,RT,context,trial_number,startTime,attempts,item_noun,paraphrase,fairprice,correct,adj_cond,trial_name,adj,utterance
2817,<i>What do you think Speaker A meant? </i>,Fri Apr 09 2021 12:04:20 GMT-0700 (PDT),NA,NA,40,NA,No,1,NA,jessica,1,NA,NA,confused,NA,"<b> Speaker A: ""The Empire State Building is tall.""</b>",NA,NA,NA,25,buildings,NA,some_college,NA,comp_class_warmup,English,female,NA,In the main trials you will be asked to rephrase something a person said. The utterance will contain a word that is <i>relative</i> and your task is to figure out what it is relative to. <br /> <br /> For example: <br />,1,1617995060699,1,NA,The Empire State Building is tall relative to other,NA,"buildings, skyscrapers, houses, constructions (choose one)",NA,comp_class_warmup,NA,NA
2817,What do you think your friend is saying it is small relative to?,Fri Apr 09 2021 12:04:20 GMT-0700 (PDT),images/dandelion.png,images/flower-parade-basic.png,40,critical,No,1,flowers,jessica,NA,dandelions,flowers,confused,Your friend goes ahead of you. You see your friend in the distance:,NA,pred,present,dandelion,25,dandelions,NA,some_college,small,NA,English,female,49825,You and your friend are at a garden store and you see the following:,1,1617995060699,NA,flowers_present,It is small relative to other,NA,NA,congruent,custom_main_text1,small,Your friend says: <br/><b>That present is a small dandelion.</b>
2817,What do you think your friend is saying it is small relative to?,Fri Apr 09 2021 12:04:20 GMT-0700 (PDT),images/hummingbird.png,images/bird-parade-basic.png,40,critical,No,1,birds,jessica,NA,birds,hummingbirds,confused,Your friend goes ahead of you. You see your friend in the distance:,NA,subj,rescue,hummingbird,25,birds,NA,some_college,small,NA,English,female,12456,You visit your friend who works at an animal shelter and you see the following:,2,1617995060699,NA,birds_rescue,It is small relative to other,NA,NA,congruent,custom_main_text1,small,Your friend says: <br/><b>That small hummingbird is a rescue.</b>
2817,What do you think your friend is saying it is big relative to?,Fri Apr 09 2021 12:04:20 GMT-0700 (PDT),images/doberman_filler.png,images/dog-parade-basic_filler.png,40,filler,No,1,dogs1,jessica,NA,dogs,dobermen,confused,Your friend goes ahead of you. You see your friend in the distance:,NA,subj,service-animal,doberman,25,dogs,NA,some_college,big,NA,English,female,257321,You and your friend see the following:,3,1617995060699,NA,dogs1_service,It is big relative to other,NA,NA,congruent,custom_main_text1,big,Your friend says: <br/><b>That doberman is big.</b>
2817,What do you think your friend is saying it is big relative to?,Fri Apr 09 2021 12:04:20 GMT-0700 (PDT),images/redwood_filler.png,images/tree-parade-basic_filler.png,40,filler,No,1,trees,jessica,NA,trees,redwoods,confused,Your friend goes ahead of you. You see your friend in the distance:,NA,pred,landmark,redwood,25,trees,NA,some_college,big,NA,English,female,17718,You and your friend see the following:,4,1617995060699,NA,trees_landmark,It is big relative to other,NA,NA,congruent,custom_main_text1,big,Your friend says: <br/><b>That's a big redwood.</b>
2817,What do you think your friend is saying it is small relative to?,Fri Apr 09 2021 12:04:20 GMT-0700 (PDT),images/pug_filler.png,images/dog-parade-basic2_filler.png,40,filler,No,1,dogs2,jessica,NA,pugs,dogs,confused,Your friend goes ahead of you. You see your friend in the distance:,NA,subj,present,pug,25,dogs,NA,some_college,small,NA,English,female,12171,You and your friend see the following:,5,1617995060699,NA,dogs2_present,It is small relative to other,NA,NA,congruent,custom_main_text1,small,Your friend says: <br/><b>That pug is small.</b>
2817,What do you think your friend is saying it is small relative to?,Fri Apr 09 2021 12:04:20 GMT-0700 (PDT),images/pug_filler.png,images/dog-parade-basic2_filler.png,40,filler,No,1,dogs2,jessica,NA,pugs,dogs,confused,Your friend goes ahead of you. You see your friend in the distance:,NA,pred,prize-winner,pug,25,pugs,NA,some_college,small,NA,English,female,23022,You and your friend see the following:,6,1617995060699,NA,dogs2_prize,It is small relative to other,NA,NA,congruent,custom_main_text1,small,Your friend says: <br/><b>That's a small pug.</b>
2817,What do you think your friend is saying it is small relative to?,Fri Apr 09 2021 12:04:20 GMT-0700 (PDT),images/bonsai_stick.png,images/tree-parade-basic.png,40,critical,No,1,trees,jessica,NA,bonsais,trees,confused,Your friend goes ahead of you. You see your friend in the distance:,NA,subj,landmark,bonsai,25,bonsais,NA,some_college,small,NA,English,female,20508,You and your friend walk to your friend's cabin in a park for the first time. You want to memorize the path and you see the following:,7,1617995060699,NA,trees_landmark,It is small relative to other,NA,NA,congruent,custom_main_text1,small,Your friend says: <br/><b>That small bonsai is a landmark.</b>
2817,What do you think your friend is saying it is big relative to?,Fri Apr 09 2021 12:04:20 GMT-0700 (PDT),images/skyscraper-landmark.png,images/buildings-parade-basic.png,40,critical,No,1,buildings,jessica,NA,skyscrapers,buildings,confused,Your friend goes ahead of you. You see your friend in the distance:,NA,pred,landmark,skyscraper,25,buildings,NA,some_college,big,NA,English,female,32350,You visit your friend who lives in another city. You take a walk and you see the following:,8,1617995060699,NA,buildings_landmark,It is big relative to other,NA,NA,congruent,custom_main_text1,big,Your friend says: <br/><b>That landmark is a big skyscraper.</b>
2817,What do you think your friend is saying it is small relative to?,Fri Apr 09 2021 12:04:20 GMT-0700 (PDT),images/stripmall-landmark-filler.png,images/buildings-parade-basic_filler.png,40,filler,No,1,buildings,jessica,NA,stripmalls,buildings,confused,Your friend goes ahead of you. You see your friend in the distance:,NA,subj,landmark,stripmall,25,stripmalls,NA,some_college,small,NA,English,female,19448,You and your friend see the following:,9,1617995060699,NA,buildings_landmark,It is small relative to other,NA,NA,congruent,custom_main_text1,small,Your friend says: <br/><b>That stripmall is small.</b>
2817,What do you think your friend is saying it is small relative to?,Fri Apr 09 2021 12:04:20 GMT-0700 (PDT),images/chihuahua.png,images/dog-parade-basic.png,40,critical,No,1,dogs1,jessica,NA,chihuahuas,dogs,confused,Your friend goes ahead of you. You see your friend in the distance:,NA,pred,service-animal,chihuahua,25,chihuahuas,NA,some_college,small,NA,English,female,9065,You and your friend are at an animal training ground and you see the following:,10,1617995060699,NA,dogs1_service,It is small relative to other,NA,NA,congruent,custom_main_text1,small,Your friend says: <br/><b>That service-animal is a small chihuahua.</b>
2817,What do you think your friend is saying it is big relative to?,Fri Apr 09 2021 12:04:20 GMT-0700 (PDT),images/eagle_filler.png,images/bird-parade-basic_filler.png,40,filler,No,1,birds,jessica,NA,birds,eagles,confused,Your friend goes ahead of you. You see your friend in the distance:,NA,pred,rescue,eagle,25,eagles,NA,some_college,big,NA,English,female,12610,You and your friend see the following:,11,1617995060699,NA,birds_rescue,It is big relative to other,NA,NA,congruent,custom_main_text1,big,Your friend says: <br/><b>That's a big eagle.</b>
2817,What do you think your friend is saying it is big relative to?,Fri Apr 09 2021 12:04:20 GMT-0700 (PDT),images/great-dane-gift.png,images/dog-parade-basic2-gift.png,40,critical,No,1,dogs2,jessica,NA,dogs,Great Danes,confused,Your friend goes ahead of you. You see your friend in the distance:,NA,pred,present,Great Dane,25,Great,NA,some_college,big,NA,English,female,442883,You and your friend are at a pet store and you see the following:,12,1617995060699,NA,dogs2_present,It is big relative to other,NA,NA,congruent,custom_main_text1,big,Your friend says: <br/><b>That present is a big Great Dane.</b>
2817,What do you think your friend is saying it is big relative to?,Fri Apr 09 2021 12:04:20 GMT-0700 (PDT),images/tuna_net.png,images/fish-parade-basic.png,40,critical,No,1,fish,jessica,NA,fish,tunas,confused,Your friend goes ahead of you. You see your friend in the distance:,NA,subj,rescue,tuna,25,fish,NA,some_college,big,NA,English,female,17381,You visit your friend who works as a marine biologist and you see the following:,13,1617995060699,NA,fish_rescue,It is big relative to other,NA,NA,congruent,custom_main_text1,big,Your friend says: <br/><b>That big tuna is a rescue.</b>
2817,What do you think your friend is saying it is small relative to?,Fri Apr 09 2021 12:04:20 GMT-0700 (PDT),images/clownfish_filler.png,images/fish-parade-basic_filler.png,40,filler,No,1,fish,jessica,NA,clownfish,fish,confused,Your friend goes ahead of you. You see your friend in the distance:,NA,pred,rescue,clownfish,25,fish,NA,some_college,small,NA,English,female,7142,You and your friend see the following:,14,1617995060699,NA,fish_rescue,It is small relative to other,NA,NA,congruent,custom_main_text1,small,Your friend says: <br/><b>That's a small clownfish.</b>
2817,What do you think your friend is saying it is big relative to?,Fri Apr 09 2021 12:04:20 GMT-0700 (PDT),images/sunflower_filler.png,images/flower-parade-basic_filler.png,40,filler,No,1,flowers,jessica,NA,flowers,sunflowers,confused,Your friend goes ahead of you. You see your friend in the distance:,NA,subj,present,sunflower,25,sunflowers,NA,some_college,big,NA,English,female,10725,You and your friend see the following:,15,1617995060699,NA,flowers_present,It is big relative to other,NA,NA,congruent,custom_main_text1,big,Your friend says: <br/><b>That sunflower is big.</b>
2817,What do you think your friend is saying it is big relative to?,Fri Apr 09 2021 12:04:20 GMT-0700 (PDT),images/great-dane.png,images/dog-parade-basic2.png,40,critical,No,1,dogs2,jessica,NA,Great Danes,dogs,confused,Your friend goes ahead of you. You see your friend in the distance:,NA,subj,prize-winner,Great Dane,25,Great,NA,some_college,big,NA,English,female,10968,You and your friend are at a pet show and you see the following:,16,1617995060699,NA,dogs2_prize,It is big relative to other,NA,NA,congruent,custom_main_text1,big,Your friend says: <br/><b>That big Great Dane is a prize-winner.</b>
2816,<i>What do you think Speaker A meant? </i>,Fri Apr 09 2021 12:06:13 GMT-0700 (PDT),NA,NA,40,NA,NA,1,NA,linda,1,NA,NA,yes,NA,"<b> Speaker A: ""The Empire State Building is tall.""</b>",NA,NA,NA,18,buildings,NA,some_college,NA,comp_class_warmup,English,female,NA,In the main trials you will be asked to rephrase something a person said. The utterance will contain a word that is <i>relative</i> and your task is to figure out what it is relative to. <br /> <br /> For example: <br />,1,1617995173255,1,NA,The Empire State Building is tall relative to other,1,"buildings, skyscrapers, houses, constructions (choose one)",NA,comp_class_warmup,NA,NA
2816,What do you think your friend is saying it is big relative to?,Fri Apr 09 2021 12:06:13 GMT-0700 (PDT),images/great-dane_filler.png,images/dog-parade-basic2_filler.png,40,filler,NA,1,dogs2,linda,NA,Great Danes,dogs,yes,Your friend goes ahead of you. You see your friend in the distance:,NA,pred,present,Great Dane,18,Great,NA,some_college,big,NA,English,female,11370,You and your friend see the following:,1,1617995173255,NA,dogs2_present,It is big relative to other,1,NA,congruent,custom_main_text1,big,Your friend says: <br/><b>That's a big Great Dane.</b>
2816,What do you think your friend is saying it is big relative to?,Fri Apr 09 2021 12:06:13 GMT-0700 (PDT),images/sunflower_filler.png,images/flower-parade-basic_filler.png,40,filler,NA,1,flowers,linda,NA,sunflowers,flowers,yes,Your friend goes ahead of you. You see your friend in the distance:,NA,subj,landmark,sunflower,18,flowers,NA,some_college,big,NA,English,female,39251,You and your friend see the following:,2,1617995173255,NA,flowers_landmark,It is big relative to other,1,NA,congruent,custom_main_text1,big,Your friend says: <br/><b>That sunflower is big.</b>
2816,What do you think your friend is saying it is small relative to?,Fri Apr 09 2021 12:06:13 GMT-0700 (PDT),images/hummingbird.png,images/bird-parade-basic.png,40,critical,NA,1,birds,linda,NA,birds,hummingbirds,yes,Your friend goes ahead of you. You see your friend in the distance:,NA,pred,rescue,hummingbird,18,hummingbirds,NA,some_college,small,NA,English,female,16160,You visit your friend who works at an animal shelter and you see the following:,3,1617995173255,NA,birds_rescue,It is small relative to other,1,NA,congruent,custom_main_text1,small,Your friend says: <br/><b>That rescue is a small hummingbird.</b>
2816,What do you think your friend is saying it is big relative to?,Fri Apr 09 2021 12:06:13 GMT-0700 (PDT),images/great-dane.png,images/dog-parade-basic2.png,40,critical,NA,1,dogs2,linda,NA,Great Danes,dogs,yes,Your friend goes ahead of you. You see your friend in the distance:,NA,subj,prize-winner,Great Dane,18,dogs,NA,some_college,big,NA,English,female,181156,You and your friend are at a pet show and you see the following:,4,1617995173255,NA,dogs2_prize,It is big relative to other,1,NA,congruent,custom_main_text1,big,Your friend says: <br/><b>That big Great Dane is a prize-winner.</b>
2816,What do you think your friend is saying it is small relative to?,Fri Apr 09 2021 12:06:13 GMT-0700 (PDT),images/pug_filler.png,images/dog-parade-basic2_filler.png,40,filler,NA,1,dogs2,linda,NA,dogs,pugs,yes,Your friend goes ahead of you. You see your friend in the distance:,NA,pred,prize-winner,pug,18,pugs,NA,some_college,small,NA,English,female,5914,You and your friend see the following:,5,1617995173255,NA,dogs2_prize,It is small relative to other,1,NA,congruent,custom_main_text1,small,Your friend says: <br/><b>That's a small pug.</b>
2816,What do you think your friend is saying it is small relative to?,Fri Apr 09 2021 12:06:13 GMT-0700 (PDT),images/clownfish_net.png,images/fish-parade-basic.png,40,critical,NA,1,fish,linda,NA,clownfish,fish,yes,Your friend goes ahead of you. You see your friend in the distance:,NA,subj,rescue,clownfish,18,clownfish,NA,some_college,small,NA,English,female,12280,You visit your friend who works as a marine biologist and you see the following:,6,1617995173255,NA,fish_rescue,It is small relative to other,1,NA,congruent,custom_main_text1,small,Your friend says: <br/><b>That small clownfish is a rescue.</b>
2816,What do you think your friend is saying it is small relative to?,Fri Apr 09 2021 12:06:13 GMT-0700 (PDT),images/dandelion_filler.png,images/flower-parade-basic_filler.png,40,filler,NA,1,flowers,linda,NA,flowers,dandelions,yes,Your friend goes ahead of you. You see your friend in the distance:,NA,subj,present,dandelion,18,flowers,NA,some_college,small,NA,English,female,49893,You and your friend see the following:,7,1617995173255,NA,flowers_present,It is small relative to other,1,NA,congruent,custom_main_text1,small,Your friend says: <br/><b>That dandelion is small.</b>
2816,What do you think your friend is saying it is small relative to?,Fri Apr 09 2021 12:06:13 GMT-0700 (PDT),images/dandelion-landmark.png,images/flower-parade-basic-landmark.png,40,critical,NA,1,flowers,linda,NA,dandelions,flowers,yes,Your friend goes ahead of you. You see your friend in the distance:,NA,pred,landmark,dandelion,18,flowers,NA,some_college,small,NA,English,female,141906,You and your friend walk to a cabin you are renting for the weekend for the first time. You go along the path and you see the following:,8,1617995173255,NA,flowers_landmark,It is small relative to other,1,NA,congruent,custom_main_text1,small,Your friend says: <br/><b>That landmark is a small dandelion.</b>
2816,What do you think your friend is saying it is small relative to?,Fri Apr 09 2021 12:06:13 GMT-0700 (PDT),images/stripmall-landmark-filler.png,images/buildings-parade-basic_filler.png,40,filler,NA,1,buildings,linda,NA,buildings,stripmalls,yes,Your friend goes ahead of you. You see your friend in the distance:,NA,subj,landmark,stripmall,18,buildings,NA,some_college,small,NA,English,female,10096,You and your friend see the following:,9,1617995173255,NA,buildings_landmark,It is small relative to other,1,NA,congruent,custom_main_text1,small,Your friend says: <br/><b>That stripmall is small.</b>
2816,What do you think your friend is saying it is big relative to?,Fri Apr 09 2021 12:06:13 GMT-0700 (PDT),images/sunflower.png,images/flower-parade-basic.png,40,critical,NA,1,flowers,linda,NA,flowers,sunflowers,yes,Your friend goes ahead of you. You see your friend in the distance:,NA,pred,present,sunflower,18,sunflowers,NA,some_college,big,NA,English,female,18664,You and your friend are at a garden store and you see the following:,10,1617995173255,NA,flowers_present,It is big relative to other,1,NA,congruent,custom_main_text1,big,Your friend says: <br/><b>That present is a big sunflower.</b>
2816,What do you think your friend is saying it is big relative to?,Fri Apr 09 2021 12:06:13 GMT-0700 (PDT),images/eagle_filler.png,images/bird-parade-basic_filler.png,40,filler,NA,1,birds,linda,NA,birds,eagles,yes,Your friend goes ahead of you. You see your friend in the distance:,NA,subj,rescue,eagle,18,birds,NA,some_college,big,NA,English,female,7487,You and your friend see the following:,11,1617995173255,NA,birds_rescue,It is big relative to other,1,NA,congruent,custom_main_text1,big,Your friend says: <br/><b>That eagle is big.</b>
2816,What do you think your friend is saying it is big relative to?,Fri Apr 09 2021 12:06:13 GMT-0700 (PDT),images/tuna_filler.png,images/fish-parade-basic_filler.png,40,filler,NA,1,fish,linda,NA,tunas,fish,yes,Your friend goes ahead of you. You see your friend in the distance:,NA,pred,rescue,tuna,18,tunas,NA,some_college,big,NA,English,female,8579,You and your friend see the following:,12,1617995173255,NA,fish_rescue,It is big relative to other,1,NA,congruent,custom_main_text1,big,Your friend says: <br/><b>That's a big tuna.</b>
2816,What do you think your friend is saying it is big relative to?,Fri Apr 09 2021 12:06:13 GMT-0700 (PDT),images/doberman.png,images/dog-parade-basic.png,40,critical,NA,1,dogs1,linda,NA,dogs,dobermen,yes,Your friend goes ahead of you. You see your friend in the distance:,NA,subj,service-animal,doberman,18,dogs,NA,some_college,big,NA,English,female,94967,You and your friend are at an animal training ground and you see the following:,13,1617995173255,NA,dogs1_service,It is big relative to other,1,NA,congruent,custom_main_text1,big,Your friend says: <br/><b>That big doberman is a service-animal.</b>
2816,What do you think your friend is saying it is small relative to?,Fri Apr 09 2021 12:06:13 GMT-0700 (PDT),images/chihuahua_filler.png,images/dog-parade-basic_filler.png,40,filler,NA,1,dogs1,linda,NA,dogs,chihuahuas,yes,Your friend goes ahead of you. You see your friend in the distance:,NA,pred,service-animal,chihuahua,18,dogs,NA,some_college,small,NA,English,female,113559,You and your friend see the following:,14,1617995173255,NA,dogs1_service,It is small relative to other,1,NA,congruent,custom_main_text1,small,Your friend says: <br/><b>That's a small chihuahua.</b>
2816,What do you think your friend is saying it is small relative to?,Fri Apr 09 2021 12:06:13 GMT-0700 (PDT),images/pug-gift.png,images/dog-parade-basic2-gift.png,40,critical,NA,1,dogs2,linda,NA,pugs,dogs,yes,Your friend goes ahead of you. You see your friend in the distance:,NA,subj,present,pug,18,pugs,NA,some_college,small,NA,English,female,6200,You and your friend are at a pet store and you see the following:,15,1617995173255,NA,dogs2_present,It is small relative to other,1,NA,congruent,custom_main_text1,small,Your friend says: <br/><b>That small pug is a present.</b>
2816,What do you think your friend is saying it is big relative to?,Fri Apr 09 2021 12:06:13 GMT-0700 (PDT),images/skyscraper-landmark.png,images/buildings-parade-basic.png,40,critical,NA,1,buildings,linda,NA,buildings,skyscrapers,yes,Your friend goes ahead of you. You see your friend in the distance:,NA,pred,landmark,skyscraper,18,skyscrapers,NA,some_college,big,NA,English,female,8520,You visit your friend who lives in another city. You take a walk and you see the following:,16,1617995173255,NA,buildings_landmark,It is big relative to other,1,NA,congruent,custom_main_text1,big,Your friend says: <br/><b>That landmark is a big skyscraper.</b>
2815,<i>What do you think Speaker A meant? </i>,Fri Apr 09 2021 13:09:54 GMT-0600 (Mountain Daylight Time),NA,NA,40,NA,NA,1,NA,susan,1,NA,NA,yes,NA,"<b> Speaker A: ""The Empire State Building is tall.""</b>",NA,NA,NA,50,buildings,NA,graduated_college,NA,comp_class_warmup,english,female,NA,In the main trials you will be asked to rephrase something a person said. The utterance will contain a word that is <i>relative</i> and your task is to figure out what it is relative to. <br /> <br /> For example: <br />,1,1617995394720,1,NA,The Empire State Building is tall relative to other,NA,"buildings, skyscrapers, houses, constructions (choose one)",NA,comp_class_warmup,NA,NA
2815,What do you think your friend is saying it is big relative to?,Fri Apr 09 2021 13:09:54 GMT-0600 (Mountain Daylight Time),images/sunflower_filler.png,images/flower-parade-basic_filler.png,40,filler,NA,1,flowers,susan,NA,sunflowers,flowers,yes,Your friend goes ahead of you. You see your friend in the distance:,NA,subj,present,sunflower,50,flowers,NA,graduated_college,big,NA,english,female,21347,You and your friend see the following:,1,1617995394720,NA,flowers_present,It is big relative to other,NA,NA,congruent,custom_main_text1,big,Your friend says: <br/><b>That sunflower is big.</b>
2815,What do you think your friend is saying it is big relative to?,Fri Apr 09 2021 13:09:54 GMT-0600 (Mountain Daylight Time),images/redwood_sign.png,images/tree-parade-basic.png,40,critical,NA,1,trees,susan,NA,redwoods,trees,yes,Your friend goes ahead of you. You see your friend in the distance:,NA,pred,landmark,redwood,50,trees,NA,graduated_college,big,NA,english,female,16781,You and your friend walk to your friend's cabin in a park for the first time. You want to memorize the path and you see the following:,2,1617995394720,NA,trees_landmark,It is big relative to other,NA,NA,congruent,custom_main_text1,big,Your friend says: <br/><b>That landmark is a big redwood.</b>
2815,What do you think your friend is saying it is big relative to?,Fri Apr 09 2021 13:09:54 GMT-0600 (Mountain Daylight Time),images/tuna_net.png,images/fish-parade-basic.png,40,critical,NA,1,fish,susan,NA,fish,tunas,yes,Your friend goes ahead of you. You see your friend in the distance:,NA,subj,rescue,tuna,50,fish,NA,graduated_college,big,NA,english,female,21406,You visit your friend who works as a marine biologist and you see the following:,3,1617995394720,NA,fish_rescue,It is big relative to other,NA,NA,congruent,custom_main_text1,big,Your friend says: <br/><b>That big tuna is a rescue.</b>
2815,What do you think your friend is saying it is small relative to?,Fri Apr 09 2021 13:09:54 GMT-0600 (Mountain Daylight Time),images/dandelion.png,images/flower-parade-basic.png,40,critical,NA,1,flowers,susan,NA,flowers,dandelions,yes,Your friend goes ahead of you. You see your friend in the distance:,NA,pred,present,dandelion,50,dandelions,NA,graduated_college,small,NA,english,female,16899,You and your friend are at a garden store and you see the following:,4,1617995394720,NA,flowers_present,It is small relative to other,NA,NA,congruent,custom_main_text1,small,Your friend says: <br/><b>That present is a small dandelion.</b>
2815,What do you think your friend is saying it is big relative to?,Fri Apr 09 2021 13:09:54 GMT-0600 (Mountain Daylight Time),images/great-dane_filler.png,images/dog-parade-basic2_filler.png,40,filler,NA,1,dogs2,susan,NA,dogs,Great Danes,yes,Your friend goes ahead of you. You see your friend in the distance:,NA,pred,prize-winner,Great Dane,50,dogs,NA,graduated_college,big,NA,english,female,10853,You and your friend see the following:,5,1617995394720,NA,dogs2_prize,It is big relative to other,NA,NA,congruent,custom_main_text1,big,Your friend says: <br/><b>That's a big Great Dane.</b>
2815,What do you think your friend is saying it is small relative to?,Fri Apr 09 2021 13:09:54 GMT-0600 (Mountain Daylight Time),images/chihuahua_filler.png,images/dog-parade-basic_filler.png,40,filler,NA,1,dogs1,susan,NA,chihuahuas,dogs,yes,Your friend goes ahead of you. You see your friend in the distance:,NA,subj,rescue,chihuahua,50,dogs,NA,graduated_college,small,NA,english,female,12440,You and your friend see the following:,6,1617995394720,NA,dogs1_rescue,It is small relative to other,NA,NA,congruent,custom_main_text1,small,Your friend says: <br/><b>That chihuahua is small.</b>
2815,What do you think your friend is saying it is small relative to?,Fri Apr 09 2021 13:09:54 GMT-0600 (Mountain Daylight Time),images/stripmall-landmark.png,images/buildings-parade-basic.png,40,critical,NA,1,buildings,susan,NA,stripmalls,buildings,yes,Your friend goes ahead of you. You see your friend in the distance:,NA,subj,landmark,stripmall,50,stripmalls,NA,graduated_college,small,NA,english,female,15360,You visit your friend who lives in another city. You take a walk and you see the following:,7,1617995394720,NA,buildings_landmark,It is small relative to other,NA,NA,congruent,custom_main_text1,small,Your friend says: <br/><b>That small stripmall is a landmark.</b>
2815,What do you think your friend is saying it is big relative to?,Fri Apr 09 2021 13:09:54 GMT-0600 (Mountain Daylight Time),images/sunflower_filler.png,images/flower-parade-basic_filler.png,40,filler,NA,1,flowers,susan,NA,sunflowers,flowers,yes,Your friend goes ahead of you. You see your friend in the distance:,NA,subj,landmark,sunflower,50,flowers,NA,graduated_college,big,NA,english,female,14092,You and your friend see the following:,8,1617995394720,NA,flowers_landmark,It is big relative to other,NA,NA,congruent,custom_main_text1,big,Your friend says: <br/><b>That sunflower is big.</b>
2815,What do you think your friend is saying it is big relative to?,Fri Apr 09 2021 13:09:54 GMT-0600 (Mountain Daylight Time),images/skyscraper-landmark-filler.png,images/buildings-parade-basic_filler.png,40,filler,NA,1,buildings,susan,NA,skyscrapers,buildings,yes,Your friend goes ahead of you. You see your friend in the distance:,NA,pred,landmark,skyscraper,50,skyscrapers,NA,graduated_college,big,NA,english,female,7589,You and your friend see the following:,9,1617995394720,NA,buildings_landmark,It is big relative to other,NA,NA,congruent,custom_main_text1,big,Your friend says: <br/><b>That's a big skyscraper.</b>
2815,What do you think your friend is saying it is small relative to?,Fri Apr 09 2021 13:09:54 GMT-0600 (Mountain Daylight Time),images/pug.png,images/dog-parade-basic2.png,40,critical,NA,1,dogs2,susan,NA,pugs,dogs,yes,Your friend goes ahead of you. You see your friend in the distance:,NA,subj,prize-winner,pug,50,pugs,NA,graduated_college,small,NA,english,female,27144,You and your friend are at a pet show and you see the following:,10,1617995394720,NA,dogs2_prize,It is small relative to other,NA,NA,congruent,custom_main_text1,small,Your friend says: <br/><b>That small pug is a prize-winner.</b>
2815,What do you think your friend is saying it is small relative to?,Fri Apr 09 2021 13:09:54 GMT-0600 (Mountain Daylight Time),images/clownfish_filler.png,images/fish-parade-basic_filler.png,40,filler,NA,1,fish,susan,NA,clownfish,fish,yes,Your friend goes ahead of you. You see your friend in the distance:,NA,pred,rescue,clownfish,50,fish,NA,graduated_college,small,NA,english,female,8098,You and your friend see the following:,11,1617995394720,NA,fish_rescue,It is small relative to other,NA,NA,congruent,custom_main_text1,small,Your friend says: <br/><b>That's a small clownfish.</b>
2815,What do you think your friend is saying it is small relative to?,Fri Apr 09 2021 13:09:54 GMT-0600 (Mountain Daylight Time),images/dandelion-landmark.png,images/flower-parade-basic-landmark.png,40,critical,NA,1,flowers,susan,NA,flowers,dandelions,yes,Your friend goes ahead of you. You see your friend in the distance:,NA,pred,landmark,dandelion,50,dandelions,NA,graduated_college,small,NA,english,female,14135,You and your friend walk to a cabin you are renting for the weekend for the first time. You go along the path and you see the following:,12,1617995394720,NA,flowers_landmark,It is small relative to other,NA,NA,congruent,custom_main_text1,small,Your friend says: <br/><b>That landmark is a small dandelion.</b>
2815,What do you think your friend is saying it is small relative to?,Fri Apr 09 2021 13:09:54 GMT-0600 (Mountain Daylight Time),images/bonsai_filler.png,images/tree-parade-basic_filler.png,40,filler,NA,1,trees,susan,NA,bonsais,trees,yes,Your friend goes ahead of you. You see your friend in the distance:,NA,subj,landmark,bonsai,50,trees,NA,graduated_college,small,NA,english,female,10322,You and your friend see the following:,13,1617995394720,NA,trees_landmark,It is small relative to other,NA,NA,congruent,custom_main_text1,small,Your friend says: <br/><b>That bonsai is small.</b>
2815,What do you think your friend is saying it is big relative to?,Fri Apr 09 2021 13:09:54 GMT-0600 (Mountain Daylight Time),images/doberman-rescue.png,images/dog-parade-basic-rescue.png,40,critical,NA,1,dogs1,susan,NA,dogs,dobermen,yes,Your friend goes ahead of you. You see your friend in the distance:,NA,pred,rescue,doberman,50,dogs,NA,graduated_college,big,NA,english,female,9644,You visit your friend who works at an animal shelter and you see the following:,14,1617995394720,NA,dogs1_rescue,It is big relative to other,NA,NA,congruent,custom_main_text1,big,Your friend says: <br/><b>That rescue is a big doberman.</b>
2815,What do you think your friend is saying it is small relative to?,Fri Apr 09 2021 13:09:54 GMT-0600 (Mountain Daylight Time),images/pug_filler.png,images/dog-parade-basic2_filler.png,40,filler,NA,1,dogs2,susan,NA,dogs,pugs,yes,Your friend goes ahead of you. You see your friend in the distance:,NA,pred,present,pug,50,dogs,NA,graduated_college,small,NA,english,female,7360,You and your friend see the following:,15,1617995394720,NA,dogs2_present,It is small relative to other,NA,NA,congruent,custom_main_text1,small,Your friend says: <br/><b>That's a small pug.</b>
2815,What do you think your friend is saying it is big relative to?,Fri Apr 09 2021 13:09:54 GMT-0600 (Mountain Daylight Time),images/great-dane-gift.png,images/dog-parade-basic2-gift.png,40,critical,NA,1,dogs2,susan,NA,Great Danes,dogs,yes,Your friend goes ahead of you. You see your friend in the distance:,NA,subj,present,Great Dane,50,dogs,NA,graduated_college,big,NA,english,female,9304,You and your friend are at a pet store and you see the following:,16,1617995394720,NA,dogs2_present,It is big relative to other,NA,NA,congruent,custom_main_text1,big,Your friend says: <br/><b>That big Great Dane is a present.</b>
2814,<i>What do you think Speaker A meant? </i>,Fri Apr 09 2021 14:05:51 GMT-0500 (Central Daylight Time),NA,NA,40,NA,NA,1,NA,Margaret,1,NA,NA,yes,NA,"<b> Speaker A: ""The Empire State Building is tall.""</b>",NA,NA,NA,41,Buildings,NA,graduated_college,NA,comp_class_warmup,English,female,NA,In the main trials you will be asked to rephrase something a person said. The utterance will contain a word that is <i>relative</i> and your task is to figure out what it is relative to. <br /> <br /> For example: <br />,1,1617995151275,1,NA,The Empire State Building is tall relative to other,NA,"buildings, skyscrapers, houses, constructions (choose one)",NA,comp_class_warmup,NA,NA
2814,What do you think your friend is saying it is small relative to?,Fri Apr 09 2021 14:05:51 GMT-0500 (Central Daylight Time),images/hummingbird.png,images/bird-parade-basic.png,40,critical,NA,1,birds,Margaret,NA,hummingbirds,birds,yes,Your friend goes ahead of you. You see your friend in the distance:,NA,subj,rescue,hummingbird,41,hummingbirds,NA,graduated_college,small,NA,English,female,22517,You visit your friend who works at an animal shelter and you see the following:,1,1617995151275,NA,birds_rescue,It is small relative to other,NA,NA,congruent,custom_main_text1,small,Your friend says: <br/><b>That small hummingbird is a rescue.</b>
2814,What do you think your friend is saying it is big relative to?,Fri Apr 09 2021 14:05:51 GMT-0500 (Central Daylight Time),images/eagle_filler.png,images/bird-parade-basic_filler.png,40,filler,NA,1,birds,Margaret,NA,eagles,birds,yes,Your friend goes ahead of you. You see your friend in the distance:,NA,pred,rescue,eagle,41,eagles,NA,graduated_college,big,NA,English,female,13731,You and your friend see the following:,2,1617995151275,NA,birds_rescue,It is big relative to other,NA,NA,congruent,custom_main_text1,big,Your friend says: <br/><b>That's a big eagle.</b>
2814,What do you think your friend is saying it is small relative to?,Fri Apr 09 2021 14:05:51 GMT-0500 (Central Daylight Time),images/dandelion.png,images/flower-parade-basic.png,40,critical,NA,1,flowers,Margaret,NA,flowers,dandelions,yes,Your friend goes ahead of you. You see your friend in the distance:,NA,subj,present,dandelion,41,flowers,NA,graduated_college,small,NA,English,female,62008,You and your friend are at a garden store and you see the following:,3,1617995151275,NA,flowers_present,It is small relative to other,NA,NA,congruent,custom_main_text1,small,Your friend says: <br/><b>That small dandelion is a present.</b>
2814,What do you think your friend is saying it is big relative to?,Fri Apr 09 2021 14:05:51 GMT-0500 (Central Daylight Time),images/tuna_filler.png,images/fish-parade-basic_filler.png,40,filler,NA,1,fish,Margaret,NA,tunas,fish,yes,Your friend goes ahead of you. You see your friend in the distance:,NA,subj,rescue,tuna,41,tunas,NA,graduated_college,big,NA,English,female,23778,You and your friend see the following:,4,1617995151275,NA,fish_rescue,It is big relative to other,NA,NA,congruent,custom_main_text1,big,Your friend says: <br/><b>That tuna is big.</b>
2814,What do you think your friend is saying it is small relative to?,Fri Apr 09 2021 14:05:51 GMT-0500 (Central Daylight Time),images/chihuahua-rescue.png,images/dog-parade-basic-rescue.png,40,critical,NA,1,dogs1,Margaret,NA,dogs,chihuahuas,yes,Your friend goes ahead of you. You see your friend in the distance:,NA,pred,rescue,chihuahua,41,chihuahuas,NA,graduated_college,small,NA,English,female,15439,You visit your friend who works at an animal shelter and you see the following:,5,1617995151275,NA,dogs1_rescue,It is small relative to other,NA,NA,congruent,custom_main_text1,small,Your friend says: <br/><b>That rescue is a small chihuahua.</b>
2814,What do you think your friend is saying it is small relative to?,Fri Apr 09 2021 14:05:51 GMT-0500 (Central Daylight Time),images/pug_filler.png,images/dog-parade-basic2_filler.png,40,filler,NA,1,dogs2,Margaret,NA,pugs,dogs,yes,Your friend goes ahead of you. You see your friend in the distance:,NA,subj,present,pug,41,dogs,NA,graduated_college,small,NA,English,female,10882,You and your friend see the following:,6,1617995151275,NA,dogs2_present,It is small relative to other,NA,NA,congruent,custom_main_text1,small,Your friend says: <br/><b>That pug is small.</b>
2814,What do you think your friend is saying it is big relative to?,Fri Apr 09 2021 14:05:51 GMT-0500 (Central Daylight Time),images/great-dane.png,images/dog-parade-basic2.png,40,critical,NA,1,dogs2,Margaret,NA,Great Danes,dogs,yes,Your friend goes ahead of you. You see your friend in the distance:,NA,subj,prize-winner,Great Dane,41,dogs,NA,graduated_college,big,NA,English,female,12339,You and your friend are at a pet show and you see the following:,7,1617995151275,NA,dogs2_prize,It is big relative to other,NA,NA,congruent,custom_main_text1,big,Your friend says: <br/><b>That big Great Dane is a prize-winner.</b>
2814,What do you think your friend is saying it is small relative to?,Fri Apr 09 2021 14:05:51 GMT-0500 (Central Daylight Time),images/dandelion_filler.png,images/flower-parade-basic_filler.png,40,filler,NA,1,flowers,Margaret,NA,dandelions,flowers,yes,Your friend goes ahead of you. You see your friend in the distance:,NA,pred,landmark,dandelion,41,dandelions,NA,graduated_college,small,NA,English,female,14204,You and your friend see the following:,8,1617995151275,NA,flowers_landmark,It is small relative to other,NA,NA,congruent,custom_main_text1,small,Your friend says: <br/><b>That's a small dandelion.</b>
2814,What do you think your friend is saying it is small relative to?,Fri Apr 09 2021 14:05:51 GMT-0500 (Central Daylight Time),images/clownfish_net.png,images/fish-parade-basic.png,40,critical,NA,1,fish,Margaret,NA,fish,clownfish,yes,Your friend goes ahead of you. You see your friend in the distance:,NA,pred,rescue,clownfish,41,clownfish,NA,graduated_college,small,NA,English,female,14885,You visit your friend who works as a marine biologist and you see the following:,9,1617995151275,NA,fish_rescue,It is small relative to other,NA,NA,congruent,custom_main_text1,small,Your friend says: <br/><b>That rescue is a small clownfish.</b>
2814,What do you think your friend is saying it is big relative to?,Fri Apr 09 2021 14:05:51 GMT-0500 (Central Daylight Time),images/sunflower_filler.png,images/flower-parade-basic_filler.png,40,filler,NA,1,flowers,Margaret,NA,flowers,sunflowers,yes,Your friend goes ahead of you. You see your friend in the distance:,NA,pred,present,sunflower,41,flowers,NA,graduated_college,big,NA,English,female,9027,You and your friend see the following:,10,1617995151275,NA,flowers_present,It is big relative to other,NA,NA,congruent,custom_main_text1,big,Your friend says: <br/><b>That's a big sunflower.</b>
2814,What do you think your friend is saying it is big relative to?,Fri Apr 09 2021 14:05:51 GMT-0500 (Central Daylight Time),images/redwood_sign.png,images/tree-parade-basic.png,40,critical,NA,1,trees,Margaret,NA,trees,redwoods,yes,Your friend goes ahead of you. You see your friend in the distance:,NA,pred,landmark,redwood,41,redwoods,NA,graduated_college,big,NA,English,female,26094,You and your friend walk to your friend's cabin in a park for the first time. You want to memorize the path and you see the following:,11,1617995151275,NA,trees_landmark,It is big relative to other,NA,NA,congruent,custom_main_text1,big,Your friend says: <br/><b>That landmark is a big redwood.</b>
2814,What do you think your friend is saying it is big relative to?,Fri Apr 09 2021 14:05:51 GMT-0500 (Central Daylight Time),images/doberman_filler.png,images/dog-parade-basic_filler.png,40,filler,NA,1,dogs1,Margaret,NA,dobermen,dogs,yes,Your friend goes ahead of you. You see your friend in the distance:,NA,subj,rescue,doberman,41,dobermen,NA,graduated_college,big,NA,English,female,17338,You and your friend see the following:,12,1617995151275,NA,dogs1_rescue,It is big relative to other,NA,NA,congruent,custom_main_text1,big,Your friend says: <br/><b>That doberman is big.</b>
2814,What do you think your friend is saying it is big relative to?,Fri Apr 09 2021 14:05:51 GMT-0500 (Central Daylight Time),images/great-dane-gift.png,images/dog-parade-basic2-gift.png,40,critical,NA,1,dogs2,Margaret,NA,dogs,Great Danes,yes,Your friend goes ahead of you. You see your friend in the distance:,NA,pred,present,Great Dane,41,Great,NA,graduated_college,big,NA,English,female,9931,You and your friend are at a pet store and you see the following:,13,1617995151275,NA,dogs2_present,It is big relative to other,NA,NA,congruent,custom_main_text1,big,Your friend says: <br/><b>That present is a big Great Dane.</b>
2814,What do you think your friend is saying it is big relative to?,Fri Apr 09 2021 14:05:51 GMT-0500 (Central Daylight Time),images/sunflower-landmark.png,images/flower-parade-basic-landmark.png,40,critical,NA,1,flowers,Margaret,NA,flowers,sunflowers,yes,Your friend goes ahead of you. You see your friend in the distance:,NA,subj,landmark,sunflower,41,flowers,NA,graduated_college,big,NA,English,female,9424,You and your friend walk to a cabin you are renting for the weekend for the first time. You go along the path and you see the following:,14,1617995151275,NA,flowers_landmark,It is big relative to other,NA,NA,congruent,custom_main_text1,big,Your friend says: <br/><b>That big sunflower is a landmark.</b>
2814,What do you think your friend is saying it is small relative to?,Fri Apr 09 2021 14:05:51 GMT-0500 (Central Daylight Time),images/bonsai_filler.png,images/tree-parade-basic_filler.png,40,filler,NA,1,trees,Margaret,NA,trees,bonsais,yes,Your friend goes ahead of you. You see your friend in the distance:,NA,subj,landmark,bonsai,41,bonsais,NA,graduated_college,small,NA,English,female,9467,You and your friend see the following:,15,1617995151275,NA,trees_landmark,It is small relative to other,NA,NA,congruent,custom_main_text1,small,Your friend says: <br/><b>That bonsai is small.</b>
2814,What do you think your friend is saying it is small relative to?,Fri Apr 09 2021 14:05:51 GMT-0500 (Central Daylight Time),images/pug_filler.png,images/dog-parade-basic2_filler.png,40,filler,NA,1,dogs2,Margaret,NA,dogs,pugs,yes,Your friend goes ahead of you. You see your friend in the distance:,NA,pred,prize-winner,pug,41,pugs,NA,graduated_college,small,NA,English,female,8877,You and your friend see the following:,16,1617995151275,NA,dogs2_prize,It is small relative to other,NA,NA,congruent,custom_main_text1,small,Your friend says: <br/><b>That's a small pug.</b>
2813,<i>What do you think Speaker A meant? </i>,Fri Apr 09 2021 14:05:16 GMT-0500 (Central Daylight Time),NA,NA,40,NA,NA,2,NA,elizabeth,1,NA,NA,yes,NA,"<b> Speaker A: ""The Empire State Building is tall.""</b>",NA,NA,NA,18,buildings,NA,some_college,NA,comp_class_warmup,"English, Spanish",female,NA,In the main trials you will be asked to rephrase something a person said. The utterance will contain a word that is <i>relative</i> and your task is to figure out what it is relative to. <br /> <br /> For example: <br />,1,1617995116348,1,NA,The Empire State Building is tall relative to other,NA,"buildings, skyscrapers, houses, constructions (choose one)",NA,comp_class_warmup,NA,NA
2813,What do you think your friend is saying it is small relative to?,Fri Apr 09 2021 14:05:16 GMT-0500 (Central Daylight Time),images/dandelion-landmark.png,images/flower-parade-basic-landmark.png,40,critical,NA,2,flowers,elizabeth,NA,dandelions,flowers,yes,Your friend goes ahead of you. You see your friend in the distance:,NA,pred,landmark,dandelion,18,flowers,NA,some_college,small,NA,"English, Spanish",female,17839,You and your friend walk to a cabin you are renting for the weekend for the first time. You go along the path and you see the following:,1,1617995116348,NA,flowers_landmark,It is small relative to other,NA,NA,congruent,custom_main_text1,small,Your friend says: <br/><b>That landmark is a small dandelion.</b>
2813,What do you think your friend is saying it is small relative to?,Fri Apr 09 2021 14:05:16 GMT-0500 (Central Daylight Time),images/bonsai_stick.png,images/tree-parade-basic.png,40,critical,NA,2,trees,elizabeth,NA,bonsais,trees,yes,Your friend goes ahead of you. You see your friend in the distance:,NA,subj,landmark,bonsai,18,trees,NA,some_college,small,NA,"English, Spanish",female,10333,You and your friend walk to your friend's cabin in a park for the first time. You want to memorize the path and you see the following:,2,1617995116348,NA,trees_landmark,It is small relative to other,NA,NA,congruent,custom_main_text1,small,Your friend says: <br/><b>That small bonsai is a landmark.</b>
2813,What do you think your friend is saying it is big relative to?,Fri Apr 09 2021 14:05:16 GMT-0500 (Central Daylight Time),images/redwood_filler.png,images/tree-parade-basic_filler.png,40,filler,NA,2,trees,elizabeth,NA,trees,redwoods,yes,Your friend goes ahead of you. You see your friend in the distance:,NA,pred,landmark,redwood,18,trees,NA,some_college,big,NA,"English, Spanish",female,4629,You and your friend see the following:,3,1617995116348,NA,trees_landmark,It is big relative to other,NA,NA,congruent,custom_main_text1,big,Your friend says: <br/><b>That's a big redwood.</b>
2813,What do you think your friend is saying it is small relative to?,Fri Apr 09 2021 14:05:16 GMT-0500 (Central Daylight Time),images/chihuahua_filler.png,images/dog-parade-basic_filler.png,40,filler,NA,2,dogs1,elizabeth,NA,chihuahuas,dogs,yes,Your friend goes ahead of you. You see your friend in the distance:,NA,subj,rescue,chihuahua,18,dogs,NA,some_college,small,NA,"English, Spanish",female,5398,You and your friend see the following:,4,1617995116348,NA,dogs1_rescue,It is small relative to other,NA,NA,congruent,custom_main_text1,small,Your friend says: <br/><b>That chihuahua is small.</b>
2813,What do you think your friend is saying it is small relative to?,Fri Apr 09 2021 14:05:16 GMT-0500 (Central Daylight Time),images/clownfish_net.png,images/fish-parade-basic.png,40,critical,NA,2,fish,elizabeth,NA,clownfish,fish,yes,Your friend goes ahead of you. You see your friend in the distance:,NA,subj,rescue,clownfish,18,fish,NA,some_college,small,NA,"English, Spanish",female,40403,You visit your friend who works as a marine biologist and you see the following:,5,1617995116348,NA,fish_rescue,It is small relative to other,NA,NA,congruent,custom_main_text1,small,Your friend says: <br/><b>That small clownfish is a rescue.</b>
2813,What do you think your friend is saying it is big relative to?,Fri Apr 09 2021 14:05:16 GMT-0500 (Central Daylight Time),images/great-dane.png,images/dog-parade-basic2.png,40,critical,NA,2,dogs2,elizabeth,NA,Great Danes,dogs,yes,Your friend goes ahead of you. You see your friend in the distance:,NA,pred,prize-winner,Great Dane,18,dogs,NA,some_college,big,NA,"English, Spanish",female,14100,You and your friend are at a pet show and you see the following:,6,1617995116348,NA,dogs2_prize,It is big relative to other,NA,NA,congruent,custom_main_text1,big,Your friend says: <br/><b>That prize-winner is a big Great Dane.</b>
2813,What do you think your friend is saying it is small relative to?,Fri Apr 09 2021 14:05:16 GMT-0500 (Central Daylight Time),images/pug_filler.png,images/dog-parade-basic2_filler.png,40,filler,NA,2,dogs2,elizabeth,NA,pugs,dogs,yes,Your friend goes ahead of you. You see your friend in the distance:,NA,pred,present,pug,18,dogs,NA,some_college,small,NA,"English, Spanish",female,5506,You and your friend see the following:,7,1617995116348,NA,dogs2_present,It is small relative to other,NA,NA,congruent,custom_main_text1,small,Your friend says: <br/><b>That's a small pug.</b>
2813,What do you think your friend is saying it is big relative to?,Fri Apr 09 2021 14:05:16 GMT-0500 (Central Daylight Time),images/great-dane-gift.png,images/dog-parade-basic2-gift.png,40,critical,NA,2,dogs2,elizabeth,NA,Great Danes,dogs,yes,Your friend goes ahead of you. You see your friend in the distance:,NA,subj,present,Great Dane,18,dogs,NA,some_college,big,NA,"English, Spanish",female,5797,You and your friend are at a pet store and you see the following:,8,1617995116348,NA,dogs2_present,It is big relative to other,NA,NA,congruent,custom_main_text1,big,Your friend says: <br/><b>That big Great Dane is a present.</b>
2813,What do you think your friend is saying it is small relative to?,Fri Apr 09 2021 14:05:16 GMT-0500 (Central Daylight Time),images/pug_filler.png,images/dog-parade-basic2_filler.png,40,filler,NA,2,dogs2,elizabeth,NA,pugs,dogs,yes,Your friend goes ahead of you. You see your friend in the distance:,NA,subj,prize-winner,pug,18,dogs,NA,some_college,small,NA,"English, Spanish",female,6046,You and your friend see the following:,9,1617995116348,NA,dogs2_prize,It is small relative to other,NA,NA,congruent,custom_main_text1,small,Your friend says: <br/><b>That pug is small.</b>
2813,What do you think your friend is saying it is big relative to?,Fri Apr 09 2021 14:05:16 GMT-0500 (Central Daylight Time),images/tuna_filler.png,images/fish-parade-basic_filler.png,40,filler,NA,2,fish,elizabeth,NA,fish,tunas,yes,Your friend goes ahead of you. You see your friend in the distance:,NA,pred,rescue,tuna,18,fish,NA,some_college,big,NA,"English, Spanish",female,5071,You and your friend see the following:,10,1617995116348,NA,fish_rescue,It is big relative to other,NA,NA,congruent,custom_main_text1,big,Your friend says: <br/><b>That's a big tuna.</b>
2813,What do you think your friend is saying it is big relative to?,Fri Apr 09 2021 14:05:16 GMT-0500 (Central Daylight Time),images/skyscraper-landmark.png,images/buildings-parade-basic.png,40,critical,NA,2,buildings,elizabeth,NA,skyscrapers,buildings,yes,Your friend goes ahead of you. You see your friend in the distance:,NA,subj,landmark,skyscraper,18,skyscrapers,NA,some_college,big,NA,"English, Spanish",female,40212,You visit your friend who lives in another city. You take a walk and you see the following:,11,1617995116348,NA,buildings_landmark,It is big relative to other,NA,NA,congruent,custom_main_text1,big,Your friend says: <br/><b>That big skyscraper is a landmark.</b>
2813,What do you think your friend is saying it is big relative to?,Fri Apr 09 2021 14:05:16 GMT-0500 (Central Daylight Time),images/sunflower_filler.png,images/flower-parade-basic_filler.png,40,filler,NA,2,flowers,elizabeth,NA,flowers,sunflowers,yes,Your friend goes ahead of you. You see your friend in the distance:,NA,subj,landmark,sunflower,18,sunflowers,NA,some_college,big,NA,"English, Spanish",female,6082,You and your friend see the following:,12,1617995116348,NA,flowers_landmark,It is big relative to other,NA,NA,congruent,custom_main_text1,big,Your friend says: <br/><b>That sunflower is big.</b>
2813,What do you think your friend is saying it is small relative to?,Fri Apr 09 2021 14:05:16 GMT-0500 (Central Daylight Time),images/chihuahua.png,images/dog-parade-basic.png,40,critical,NA,2,dogs1,elizabeth,NA,chihuahuas,dogs,yes,Your friend goes ahead of you. You see your friend in the distance:,NA,pred,service-animal,chihuahua,18,dogs,NA,some_college,small,NA,"English, Spanish",female,7692,You and your friend are at an animal training ground and you see the following:,13,1617995116348,NA,dogs1_service,It is small relative to other,NA,NA,congruent,custom_main_text1,small,Your friend says: <br/><b>That service-animal is a small chihuahua.</b>
2813,What do you think your friend is saying it is big relative to?,Fri Apr 09 2021 14:05:16 GMT-0500 (Central Daylight Time),images/doberman_filler.png,images/dog-parade-basic_filler.png,40,filler,NA,2,dogs1,elizabeth,NA,dogs,dobermen,yes,Your friend goes ahead of you. You see your friend in the distance:,NA,subj,service-animal,doberman,18,dobermen,NA,some_college,big,NA,"English, Spanish",female,10795,You and your friend see the following:,14,1617995116348,NA,dogs1_service,It is big relative to other,NA,NA,congruent,custom_main_text1,big,Your friend says: <br/><b>That doberman is big.</b>
2813,What do you think your friend is saying it is small relative to?,Fri Apr 09 2021 14:05:16 GMT-0500 (Central Daylight Time),images/stripmall-landmark-filler.png,images/buildings-parade-basic_filler.png,40,filler,NA,2,buildings,elizabeth,NA,stripmalls,buildings,yes,Your friend goes ahead of you. You see your friend in the distance:,NA,pred,landmark,stripmall,18,buildings,NA,some_college,small,NA,"English, Spanish",female,7542,You and your friend see the following:,15,1617995116348,NA,buildings_landmark,It is small relative to other,NA,NA,congruent,custom_main_text1,small,Your friend says: <br/><b>That's a small stripmall.</b>
2813,What do you think your friend is saying it is big relative to?,Fri Apr 09 2021 14:05:16 GMT-0500 (Central Daylight Time),images/doberman-rescue.png,images/dog-parade-basic-rescue.png,40,critical,NA,2,dogs1,elizabeth,NA,dogs,dobermen,yes,Your friend goes ahead of you. You see your friend in the distance:,NA,pred,rescue,doberman,18,dogs,NA,some_college,big,NA,"English, Spanish",female,57149,You visit your friend who works at an animal shelter and you see the following:,16,1617995116348,NA,dogs1_rescue,It is big relative to other,NA,NA,congruent,custom_main_text1,big,Your friend says: <br/><b>That rescue is a big doberman.</b>
2812,<i>What do you think Speaker A meant? </i>,Fri Apr 09 2021 12:04:03 GMT-0700 (Mountain Standard Time),NA,NA,40,NA,NA,2,NA,mary,1,NA,NA,yes,NA,"<b> Speaker A: ""The Empire State Building is tall.""</b>",NA,NA,NA,28,buildings,NA,some_college,NA,comp_class_warmup,English,male,NA,In the main trials you will be asked to rephrase something a person said. The utterance will contain a word that is <i>relative</i> and your task is to figure out what it is relative to. <br /> <br /> For example: <br />,1,1617995043824,1,NA,The Empire State Building is tall relative to other,0.9,"buildings, skyscrapers, houses, constructions (choose one)",NA,comp_class_warmup,NA,NA
2812,What do you think your friend is saying it is small relative to?,Fri Apr 09 2021 12:04:03 GMT-0700 (Mountain Standard Time),images/clownfish_filler.png,images/fish-parade-basic_filler.png,40,filler,NA,2,fish,mary,NA,fish,clownfish,yes,Your friend goes ahead of you. You see your friend in the distance:,NA,subj,rescue,clownfish,28,fish,NA,some_college,small,NA,English,male,8810,You and your friend see the following:,1,1617995043824,NA,fish_rescue,It is small relative to other,0.9,NA,congruent,custom_main_text1,small,Your friend says: <br/><b>That clownfish is small.</b>
2812,What do you think your friend is saying it is small relative to?,Fri Apr 09 2021 12:04:03 GMT-0700 (Mountain Standard Time),images/chihuahua.png,images/dog-parade-basic.png,40,critical,NA,2,dogs1,mary,NA,dogs,chihuahuas,yes,Your friend goes ahead of you. You see your friend in the distance:,NA,subj,service-animal,chihuahua,28,dogs,NA,some_college,small,NA,English,male,17917,You and your friend are at an animal training ground and you see the following:,2,1617995043824,NA,dogs1_service,It is small relative to other,0.9,NA,congruent,custom_main_text1,small,Your friend says: <br/><b>That small chihuahua is a service-animal.</b>
2812,What do you think your friend is saying it is small relative to?,Fri Apr 09 2021 12:04:03 GMT-0700 (Mountain Standard Time),images/chihuahua-rescue.png,images/dog-parade-basic-rescue.png,40,critical,NA,2,dogs1,mary,NA,chihuahuas,dogs,yes,Your friend goes ahead of you. You see your friend in the distance:,NA,pred,rescue,chihuahua,28,chihuahuas,NA,some_college,small,NA,English,male,6658,You visit your friend who works at an animal shelter and you see the following:,3,1617995043824,NA,dogs1_rescue,It is small relative to other,0.9,NA,congruent,custom_main_text1,small,Your friend says: <br/><b>That rescue is a small chihuahua.</b>
2812,What do you think your friend is saying it is big relative to?,Fri Apr 09 2021 12:04:03 GMT-0700 (Mountain Standard Time),images/sunflower.png,images/flower-parade-basic.png,40,critical,NA,2,flowers,mary,NA,flowers,sunflowers,yes,Your friend goes ahead of you. You see your friend in the distance:,NA,subj,present,sunflower,28,sunflowers,NA,some_college,big,NA,English,male,10843,You and your friend are at a garden store and you see the following:,4,1617995043824,NA,flowers_present,It is big relative to other,0.9,NA,congruent,custom_main_text1,big,Your friend says: <br/><b>That big sunflower is a present.</b>
2812,What do you think your friend is saying it is big relative to?,Fri Apr 09 2021 12:04:03 GMT-0700 (Mountain Standard Time),images/great-dane_filler.png,images/dog-parade-basic2_filler.png,40,filler,NA,2,dogs2,mary,NA,Great Danes,dogs,yes,Your friend goes ahead of you. You see your friend in the distance:,NA,pred,present,Great Dane,28,dogs,NA,some_college,big,NA,English,male,10668,You and your friend see the following:,5,1617995043824,NA,dogs2_present,It is big relative to other,0.9,NA,congruent,custom_main_text1,big,Your friend says: <br/><b>That's a big Great Dane.</b>
2812,What do you think your friend is saying it is big relative to?,Fri Apr 09 2021 12:04:03 GMT-0700 (Mountain Standard Time),images/tuna_net.png,images/fish-parade-basic.png,40,critical,NA,2,fish,mary,NA,fish,tunas,yes,Your friend goes ahead of you. You see your friend in the distance:,NA,pred,rescue,tuna,28,tunas,NA,some_college,big,NA,English,male,8541,You visit your friend who works as a marine biologist and you see the following:,6,1617995043824,NA,fish_rescue,It is big relative to other,0.9,NA,congruent,custom_main_text1,big,Your friend says: <br/><b>That rescue is a big tuna.</b>
2812,What do you think your friend is saying it is small relative to?,Fri Apr 09 2021 12:04:03 GMT-0700 (Mountain Standard Time),images/bonsai_filler.png,images/tree-parade-basic_filler.png,40,filler,NA,2,trees,mary,NA,bonsais,trees,yes,Your friend goes ahead of you. You see your friend in the distance:,NA,subj,landmark,bonsai,28,trees,NA,some_college,small,NA,English,male,4648,You and your friend see the following:,7,1617995043824,NA,trees_landmark,It is small relative to other,0.9,NA,congruent,custom_main_text1,small,Your friend says: <br/><b>That bonsai is small.</b>
2812,What do you think your friend is saying it is big relative to?,Fri Apr 09 2021 12:04:03 GMT-0700 (Mountain Standard Time),images/doberman_filler.png,images/dog-parade-basic_filler.png,40,filler,NA,2,dogs1,mary,NA,dogs,dobermen,yes,Your friend goes ahead of you. You see your friend in the distance:,NA,pred,service-animal,doberman,28,dobermen,NA,some_college,big,NA,English,male,4007,You and your friend see the following:,8,1617995043824,NA,dogs1_service,It is big relative to other,0.9,NA,congruent,custom_main_text1,big,Your friend says: <br/><b>That's a big doberman.</b>
2812,What do you think your friend is saying it is big relative to?,Fri Apr 09 2021 12:04:03 GMT-0700 (Mountain Standard Time),images/doberman_filler.png,images/dog-parade-basic_filler.png,40,filler,NA,2,dogs1,mary,NA,dogs,dobermen,yes,Your friend goes ahead of you. You see your friend in the distance:,NA,subj,rescue,doberman,28,dogs,NA,some_college,big,NA,English,male,3355,You and your friend see the following:,9,1617995043824,NA,dogs1_rescue,It is big relative to other,0.9,NA,congruent,custom_main_text1,big,Your friend says: <br/><b>That doberman is big.</b>
2812,What do you think your friend is saying it is big relative to?,Fri Apr 09 2021 12:04:03 GMT-0700 (Mountain Standard Time),images/great-dane.png,images/dog-parade-basic2.png,40,critical,NA,2,dogs2,mary,NA,dogs,Great Danes,yes,Your friend goes ahead of you. You see your friend in the distance:,NA,subj,prize-winner,Great Dane,28,Great,NA,some_college,big,NA,English,male,6381,You and your friend are at a pet show and you see the following:,10,1617995043824,NA,dogs2_prize,It is big relative to other,0.9,NA,congruent,custom_main_text1,big,Your friend says: <br/><b>That big Great Dane is a prize-winner.</b>
2812,What do you think your friend is saying it is big relative to?,Fri Apr 09 2021 12:04:03 GMT-0700 (Mountain Standard Time),images/redwood_sign.png,images/tree-parade-basic.png,40,critical,NA,2,trees,mary,NA,redwoods,trees,yes,Your friend goes ahead of you. You see your friend in the distance:,NA,pred,landmark,redwood,28,redwoods,NA,some_college,big,NA,English,male,7447,You and your friend walk to your friend's cabin in a park for the first time. You want to memorize the path and you see the following:,11,1617995043824,NA,trees_landmark,It is big relative to other,0.9,NA,congruent,custom_main_text1,big,Your friend says: <br/><b>That landmark is a big redwood.</b>
2812,What do you think your friend is saying it is small relative to?,Fri Apr 09 2021 12:04:03 GMT-0700 (Mountain Standard Time),images/pug_filler.png,images/dog-parade-basic2_filler.png,40,filler,NA,2,dogs2,mary,NA,pugs,dogs,yes,Your friend goes ahead of you. You see your friend in the distance:,NA,pred,prize-winner,pug,28,pugs,NA,some_college,small,NA,English,male,4017,You and your friend see the following:,12,1617995043824,NA,dogs2_prize,It is small relative to other,0.9,NA,congruent,custom_main_text1,small,Your friend says: <br/><b>That's a small pug.</b>
2812,What do you think your friend is saying it is small relative to?,Fri Apr 09 2021 12:04:03 GMT-0700 (Mountain Standard Time),images/pug-gift.png,images/dog-parade-basic2-gift.png,40,critical,NA,2,dogs2,mary,NA,pugs,dogs,yes,Your friend goes ahead of you. You see your friend in the distance:,NA,subj,present,pug,28,pugs,NA,some_college,small,NA,English,male,3950,You and your friend are at a pet store and you see the following:,13,1617995043824,NA,dogs2_present,It is small relative to other,0.9,NA,congruent,custom_main_text1,small,Your friend says: <br/><b>That small pug is a present.</b>
2812,What do you think your friend is saying it is small relative to?,Fri Apr 09 2021 12:04:03 GMT-0700 (Mountain Standard Time),images/dandelion_filler.png,images/flower-parade-basic_filler.png,40,filler,NA,2,flowers,mary,NA,flowers,dandelions,yes,Your friend goes ahead of you. You see your friend in the distance:,NA,pred,present,dandelion,28,dandelions,NA,some_college,small,NA,English,male,9708,You and your friend see the following:,14,1617995043824,NA,flowers_present,It is small relative to other,0.9,NA,congruent,custom_main_text1,small,Your friend says: <br/><b>That's a small dandelion.</b>
2812,What do you think your friend is saying it is small relative to?,Fri Apr 09 2021 12:04:03 GMT-0700 (Mountain Standard Time),images/stripmall-landmark.png,images/buildings-parade-basic.png,40,critical,NA,2,buildings,mary,NA,buildings,stripmalls,yes,Your friend goes ahead of you. You see your friend in the distance:,NA,pred,landmark,stripmall,28,buildings,NA,some_college,small,NA,English,male,6987,You visit your friend who lives in another city. You take a walk and you see the following:,15,1617995043824,NA,buildings_landmark,It is small relative to other,0.9,NA,congruent,custom_main_text1,small,Your friend says: <br/><b>That landmark is a small stripmall.</b>
2812,What do you think your friend is saying it is big relative to?,Fri Apr 09 2021 12:04:03 GMT-0700 (Mountain Standard Time),images/skyscraper-landmark-filler.png,images/buildings-parade-basic_filler.png,40,filler,NA,2,buildings,mary,NA,skyscrapers,buildings,yes,Your friend goes ahead of you. You see your friend in the distance:,NA,subj,landmark,skyscraper,28,buildings,NA,some_college,big,NA,English,male,3570,You and your friend see the following:,16,1617995043824,NA,buildings_landmark,It is big relative to other,0.9,NA,congruent,custom_main_text1,big,Your friend says: <br/><b>That skyscraper is big.</b>
2811,<i>What do you think Speaker A meant? </i>,Fri Apr 09 2021 12:02:22 GMT-0700 (PDT),NA,NA,40,NA,no,2,NA,mary,1,NA,NA,yes,NA,"<b> Speaker A: ""The Empire State Building is tall.""</b>",NA,NA,NA,62,buildings,Super interesting study...gl with it! ,some_college,NA,comp_class_warmup,English,male,NA,In the main trials you will be asked to rephrase something a person said. The utterance will contain a word that is <i>relative</i> and your task is to figure out what it is relative to. <br /> <br /> For example: <br />,1,1617994942946,1,NA,The Empire State Building is tall relative to other,NA,"buildings, skyscrapers, houses, constructions (choose one)",NA,comp_class_warmup,NA,NA
2811,What do you think your friend is saying it is small relative to?,Fri Apr 09 2021 12:02:22 GMT-0700 (PDT),images/hummingbird_filler.png,images/bird-parade-basic_filler.png,40,filler,no,2,birds,mary,NA,birds,hummingbirds,yes,Your friend goes ahead of you. You see your friend in the distance:,NA,subj,rescue,hummingbird,62,birds,Super interesting study...gl with it! ,some_college,small,NA,English,male,16992,You and your friend see the following:,1,1617994942946,NA,birds_rescue,It is small relative to other,NA,NA,congruent,custom_main_text1,small,Your friend says: <br/><b>That hummingbird is small.</b>
2811,What do you think your friend is saying it is small relative to?,Fri Apr 09 2021 12:02:22 GMT-0700 (PDT),images/stripmall-landmark.png,images/buildings-parade-basic.png,40,critical,no,2,buildings,mary,NA,buildings,stripmalls,yes,Your friend goes ahead of you. You see your friend in the distance:,NA,pred,landmark,stripmall,62,stripmalls,Super interesting study...gl with it! ,some_college,small,NA,English,male,30271,You visit your friend who lives in another city. You take a walk and you see the following:,2,1617994942946,NA,buildings_landmark,It is small relative to other,NA,NA,congruent,custom_main_text1,small,Your friend says: <br/><b>That landmark is a small stripmall.</b>
2811,What do you think your friend is saying it is big relative to?,Fri Apr 09 2021 12:02:22 GMT-0700 (PDT),images/tuna_net.png,images/fish-parade-basic.png,40,critical,no,2,fish,mary,NA,tunas,fish,yes,Your friend goes ahead of you. You see your friend in the distance:,NA,subj,rescue,tuna,62,tunas,Super interesting study...gl with it! ,some_college,big,NA,English,male,27000,You visit your friend who works as a marine biologist and you see the following:,3,1617994942946,NA,fish_rescue,It is big relative to other,NA,NA,congruent,custom_main_text1,big,Your friend says: <br/><b>That big tuna is a rescue.</b>
2811,What do you think your friend is saying it is big relative to?,Fri Apr 09 2021 12:02:22 GMT-0700 (PDT),images/sunflower_filler.png,images/flower-parade-basic_filler.png,40,filler,no,2,flowers,mary,NA,sunflowers,flowers,yes,Your friend goes ahead of you. You see your friend in the distance:,NA,pred,landmark,sunflower,62,sunflowers,Super interesting study...gl with it! ,some_college,big,NA,English,male,12200,You and your friend see the following:,4,1617994942946,NA,flowers_landmark,It is big relative to other,NA,NA,congruent,custom_main_text1,big,Your friend says: <br/><b>That's a big sunflower.</b>
2811,What do you think your friend is saying it is big relative to?,Fri Apr 09 2021 12:02:22 GMT-0700 (PDT),images/eagle.png,images/bird-parade-basic.png,40,critical,no,2,birds,mary,NA,birds,eagles,yes,Your friend goes ahead of you. You see your friend in the distance:,NA,pred,rescue,eagle,62,eagles,Super interesting study...gl with it! ,some_college,big,NA,English,male,22760,You visit your friend who works at an animal shelter and you see the following:,5,1617994942946,NA,birds_rescue,It is big relative to other,NA,NA,congruent,custom_main_text1,big,Your friend says: <br/><b>That rescue is a big eagle.</b>
2811,What do you think your friend is saying it is big relative to?,Fri Apr 09 2021 12:02:22 GMT-0700 (PDT),images/doberman.png,images/dog-parade-basic.png,40,critical,no,2,dogs1,mary,NA,dobermen,dogs,yes,Your friend goes ahead of you. You see your friend in the distance:,NA,subj,service-animal,doberman,62,dobermen,Super interesting study...gl with it! ,some_college,big,NA,English,male,27487,You and your friend are at an animal training ground and you see the following:,6,1617994942946,NA,dogs1_service,It is big relative to other,NA,NA,congruent,custom_main_text1,big,Your friend says: <br/><b>That big doberman is a service-animal.</b>
2811,What do you think your friend is saying it is big relative to?,Fri Apr 09 2021 12:02:22 GMT-0700 (PDT),images/doberman-rescue.png,images/dog-parade-basic-rescue.png,40,critical,no,2,dogs1,mary,NA,dogs,dobermen,yes,Your friend goes ahead of you. You see your friend in the distance:,NA,pred,rescue,doberman,62,dobermen,Super interesting study...gl with it! ,some_college,big,NA,English,male,14480,You visit your friend who works at an animal shelter and you see the following:,7,1617994942946,NA,dogs1_rescue,It is big relative to other,NA,NA,congruent,custom_main_text1,big,Your friend says: <br/><b>That rescue is a big doberman.</b>
2811,What do you think your friend is saying it is big relative to?,Fri Apr 09 2021 12:02:22 GMT-0700 (PDT),images/great-dane_filler.png,images/dog-parade-basic2_filler.png,40,filler,no,2,dogs2,mary,NA,Great Danes,dogs,yes,Your friend goes ahead of you. You see your friend in the distance:,NA,pred,prize-winner,Great Dane,62,Great,Super interesting study...gl with it! ,some_college,big,NA,English,male,12064,You and your friend see the following:,8,1617994942946,NA,dogs2_prize,It is big relative to other,NA,NA,congruent,custom_main_text1,big,Your friend says: <br/><b>That's a big Great Dane.</b>
2811,What do you think your friend is saying it is small relative to?,Fri Apr 09 2021 12:02:22 GMT-0700 (PDT),images/chihuahua_filler.png,images/dog-parade-basic_filler.png,40,filler,no,2,dogs1,mary,NA,dogs,chihuahuas,yes,Your friend goes ahead of you. You see your friend in the distance:,NA,subj,rescue,chihuahua,62,dogs,Super interesting study...gl with it! ,some_college,small,NA,English,male,11616,You and your friend see the following:,9,1617994942946,NA,dogs1_rescue,It is small relative to other,NA,NA,congruent,custom_main_text1,small,Your friend says: <br/><b>That chihuahua is small.</b>
2811,What do you think your friend is saying it is small relative to?,Fri Apr 09 2021 12:02:22 GMT-0700 (PDT),images/pug.png,images/dog-parade-basic2.png,40,critical,no,2,dogs2,mary,NA,dogs,pugs,yes,Your friend goes ahead of you. You see your friend in the distance:,NA,subj,prize-winner,pug,62,dogs,Super interesting study...gl with it! ,some_college,small,NA,English,male,13919,You and your friend are at a pet show and you see the following:,10,1617994942946,NA,dogs2_prize,It is small relative to other,NA,NA,congruent,custom_main_text1,small,Your friend says: <br/><b>That small pug is a prize-winner.</b>
2811,What do you think your friend is saying it is small relative to?,Fri Apr 09 2021 12:02:22 GMT-0700 (PDT),images/bonsai_stick.png,images/tree-parade-basic.png,40,critical,no,2,trees,mary,NA,bonsais,trees,yes,Your friend goes ahead of you. You see your friend in the distance:,NA,pred,landmark,bonsai,62,trees,Super interesting study...gl with it! ,some_college,small,NA,English,male,28248,You and your friend walk to your friend's cabin in a park for the first time. You want to memorize the path and you see the following:,11,1617994942946,NA,trees_landmark,It is small relative to other,NA,NA,congruent,custom_main_text1,small,Your friend says: <br/><b>That landmark is a small bonsai.</b>
2811,What do you think your friend is saying it is small relative to?,Fri Apr 09 2021 12:02:22 GMT-0700 (PDT),images/dandelion-landmark.png,images/flower-parade-basic-landmark.png,40,critical,no,2,flowers,mary,NA,dandelions,flowers,yes,Your friend goes ahead of you. You see your friend in the distance:,NA,subj,landmark,dandelion,62,flowers,Super interesting study...gl with it! ,some_college,small,NA,English,male,27177,You and your friend walk to a cabin you are renting for the weekend for the first time. You go along the path and you see the following:,12,1617994942946,NA,flowers_landmark,It is small relative to other,NA,NA,congruent,custom_main_text1,small,Your friend says: <br/><b>That small dandelion is a landmark.</b>
2811,What do you think your friend is saying it is small relative to?,Fri Apr 09 2021 12:02:22 GMT-0700 (PDT),images/clownfish_filler.png,images/fish-parade-basic_filler.png,40,filler,no,2,fish,mary,NA,clownfish,fish,yes,Your friend goes ahead of you. You see your friend in the distance:,NA,pred,rescue,clownfish,62,clownfish,Super interesting study...gl with it! ,some_college,small,NA,English,male,15335,You and your friend see the following:,13,1617994942946,NA,fish_rescue,It is small relative to other,NA,NA,congruent,custom_main_text1,small,Your friend says: <br/><b>That's a small clownfish.</b>
2811,What do you think your friend is saying it is big relative to?,Fri Apr 09 2021 12:02:22 GMT-0700 (PDT),images/redwood_filler.png,images/tree-parade-basic_filler.png,40,filler,no,2,trees,mary,NA,trees,redwoods,yes,Your friend goes ahead of you. You see your friend in the distance:,NA,subj,landmark,redwood,62,trees,Super interesting study...gl with it! ,some_college,big,NA,English,male,12384,You and your friend see the following:,14,1617994942946,NA,trees_landmark,It is big relative to other,NA,NA,congruent,custom_main_text1,big,Your friend says: <br/><b>That redwood is big.</b>
2811,What do you think your friend is saying it is small relative to?,Fri Apr 09 2021 12:02:22 GMT-0700 (PDT),images/chihuahua_filler.png,images/dog-parade-basic_filler.png,40,filler,no,2,dogs1,mary,NA,dogs,chihuahuas,yes,Your friend goes ahead of you. You see your friend in the distance:,NA,pred,service-animal,chihuahua,62,chihuahuas,Super interesting study...gl with it! ,some_college,small,NA,English,male,14463,You and your friend see the following:,15,1617994942946,NA,dogs1_service,It is small relative to other,NA,NA,congruent,custom_main_text1,small,Your friend says: <br/><b>That's a small chihuahua.</b>
2811,What do you think your friend is saying it is big relative to?,Fri Apr 09 2021 12:02:22 GMT-0700 (PDT),images/skyscraper-landmark-filler.png,images/buildings-parade-basic_filler.png,40,filler,no,2,buildings,mary,NA,skyscrapers,buildings,yes,Your friend goes ahead of you. You see your friend in the distance:,NA,subj,landmark,skyscraper,62,skyscrapers,Super interesting study...gl with it! ,some_college,big,NA,English,male,20630,You and your friend see the following:,16,1617994942946,NA,buildings_landmark,It is big relative to other,NA,NA,congruent,custom_main_text1,big,Your friend says: <br/><b>That skyscraper is big.</b>
2810,<i>What do you think Speaker A meant? </i>,Fri Apr 09 2021 15:04:53 GMT-0400 (Eastern Daylight Time),NA,NA,40,NA,None.,2,NA,patricia,1,NA,NA,yes,NA,"<b> Speaker A: ""The Empire State Building is tall.""</b>",NA,NA,NA,35,buildings,NA,some_college,NA,comp_class_warmup,English,male,NA,In the main trials you will be asked to rephrase something a person said. The utterance will contain a word that is <i>relative</i> and your task is to figure out what it is relative to. <br /> <br /> For example: <br />,1,1617995093789,1,NA,The Empire State Building is tall relative to other,2,"buildings, skyscrapers, houses, constructions (choose one)",NA,comp_class_warmup,NA,NA
2810,What do you think your friend is saying it is big relative to?,Fri Apr 09 2021 15:04:53 GMT-0400 (Eastern Daylight Time),images/doberman_filler.png,images/dog-parade-basic_filler.png,40,filler,None.,2,dogs1,patricia,NA,dogs,dobermen,yes,Your friend goes ahead of you. You see your friend in the distance:,NA,subj,rescue,doberman,35,dogs,NA,some_college,big,NA,English,male,14392,You and your friend see the following:,1,1617995093789,NA,dogs1_rescue,It is big relative to other,2,NA,congruent,custom_main_text1,big,Your friend says: <br/><b>That doberman is big.</b>
2810,What do you think your friend is saying it is small relative to?,Fri Apr 09 2021 15:04:53 GMT-0400 (Eastern Daylight Time),images/clownfish_net.png,images/fish-parade-basic.png,40,critical,None.,2,fish,patricia,NA,fish,clownfish,yes,Your friend goes ahead of you. You see your friend in the distance:,NA,subj,rescue,clownfish,35,fish,NA,some_college,small,NA,English,male,15513,You visit your friend who works as a marine biologist and you see the following:,2,1617995093789,NA,fish_rescue,It is small relative to other,2,NA,congruent,custom_main_text1,small,Your friend says: <br/><b>That small clownfish is a rescue.</b>
2810,What do you think your friend is saying it is big relative to?,Fri Apr 09 2021 15:04:53 GMT-0400 (Eastern Daylight Time),images/tuna_filler.png,images/fish-parade-basic_filler.png,40,filler,None.,2,fish,patricia,NA,tunas,fish,yes,Your friend goes ahead of you. You see your friend in the distance:,NA,pred,rescue,tuna,35,tunas,NA,some_college,big,NA,English,male,11278,You and your friend see the following:,3,1617995093789,NA,fish_rescue,It is big relative to other,2,NA,congruent,custom_main_text1,big,Your friend says: <br/><b>That's a big tuna.</b>
2810,What do you think your friend is saying it is small relative to?,Fri Apr 09 2021 15:04:53 GMT-0400 (Eastern Daylight Time),images/chihuahua-rescue.png,images/dog-parade-basic-rescue.png,40,critical,None.,2,dogs1,patricia,NA,chihuahuas,dogs,yes,Your friend goes ahead of you. You see your friend in the distance:,NA,pred,rescue,chihuahua,35,chihuahuas,NA,some_college,small,NA,English,male,12976,You visit your friend who works at an animal shelter and you see the following:,4,1617995093789,NA,dogs1_rescue,It is small relative to other,2,NA,congruent,custom_main_text1,small,Your friend says: <br/><b>That rescue is a small chihuahua.</b>
2810,What do you think your friend is saying it is small relative to?,Fri Apr 09 2021 15:04:53 GMT-0400 (Eastern Daylight Time),images/hummingbird_filler.png,images/bird-parade-basic_filler.png,40,filler,None.,2,birds,patricia,NA,hummingbirds,birds,yes,Your friend goes ahead of you. You see your friend in the distance:,NA,pred,rescue,hummingbird,35,hummingbirds,NA,some_college,small,NA,English,male,8006,You and your friend see the following:,5,1617995093789,NA,birds_rescue,It is small relative to other,2,NA,congruent,custom_main_text1,small,Your friend says: <br/><b>That's a small hummingbird.</b>
2810,What do you think your friend is saying it is small relative to?,Fri Apr 09 2021 15:04:53 GMT-0400 (Eastern Daylight Time),images/pug-gift.png,images/dog-parade-basic2-gift.png,40,critical,None.,2,dogs2,patricia,NA,dogs,pugs,yes,Your friend goes ahead of you. You see your friend in the distance:,NA,pred,present,pug,35,pugs,NA,some_college,small,NA,English,male,16108,You and your friend are at a pet store and you see the following:,6,1617995093789,NA,dogs2_present,It is small relative to other,2,NA,congruent,custom_main_text1,small,Your friend says: <br/><b>That present is a small pug.</b>
2810,What do you think your friend is saying it is big relative to?,Fri Apr 09 2021 15:04:53 GMT-0400 (Eastern Daylight Time),images/redwood_filler.png,images/tree-parade-basic_filler.png,40,filler,None.,2,trees,patricia,NA,redwoods,trees,yes,Your friend goes ahead of you. You see your friend in the distance:,NA,pred,landmark,redwood,35,trees,NA,some_college,big,NA,English,male,7436,You and your friend see the following:,7,1617995093789,NA,trees_landmark,It is big relative to other,2,NA,congruent,custom_main_text1,big,Your friend says: <br/><b>That's a big redwood.</b>
2810,What do you think your friend is saying it is big relative to?,Fri Apr 09 2021 15:04:53 GMT-0400 (Eastern Daylight Time),images/great-dane_filler.png,images/dog-parade-basic2_filler.png,40,filler,None.,2,dogs2,patricia,NA,dogs,Great Danes,yes,Your friend goes ahead of you. You see your friend in the distance:,NA,subj,present,Great Dane,35,dogs,NA,some_college,big,NA,English,male,9008,You and your friend see the following:,8,1617995093789,NA,dogs2_present,It is big relative to other,2,NA,congruent,custom_main_text1,big,Your friend says: <br/><b>That Great Dane is big.</b>
2810,What do you think your friend is saying it is small relative to?,Fri Apr 09 2021 15:04:53 GMT-0400 (Eastern Daylight Time),images/bonsai_stick.png,images/tree-parade-basic.png,40,critical,None.,2,trees,patricia,NA,trees,bonsais,yes,Your friend goes ahead of you. You see your friend in the distance:,NA,subj,landmark,bonsai,35,bonsais,NA,some_college,small,NA,English,male,20244,You and your friend walk to your friend's cabin in a park for the first time. You want to memorize the path and you see the following:,9,1617995093789,NA,trees_landmark,It is small relative to other,2,NA,congruent,custom_main_text1,small,Your friend says: <br/><b>That small bonsai is a landmark.</b>
2810,What do you think your friend is saying it is big relative to?,Fri Apr 09 2021 15:04:53 GMT-0400 (Eastern Daylight Time),images/great-dane.png,images/dog-parade-basic2.png,40,critical,None.,2,dogs2,patricia,NA,Great Danes,dogs,yes,Your friend goes ahead of you. You see your friend in the distance:,NA,pred,prize-winner,Great Dane,35,Great,NA,some_college,big,NA,English,male,11457,You and your friend are at a pet show and you see the following:,10,1617995093789,NA,dogs2_prize,It is big relative to other,2,NA,congruent,custom_main_text1,big,Your friend says: <br/><b>That prize-winner is a big Great Dane.</b>
2810,What do you think your friend is saying it is big relative to?,Fri Apr 09 2021 15:04:53 GMT-0400 (Eastern Daylight Time),images/eagle.png,images/bird-parade-basic.png,40,critical,None.,2,birds,patricia,NA,birds,eagles,yes,Your friend goes ahead of you. You see your friend in the distance:,NA,subj,rescue,eagle,35,eagles,NA,some_college,big,NA,English,male,8745,You visit your friend who works at an animal shelter and you see the following:,11,1617995093789,NA,birds_rescue,It is big relative to other,2,NA,congruent,custom_main_text1,big,Your friend says: <br/><b>That big eagle is a rescue.</b>
2810,What do you think your friend is saying it is small relative to?,Fri Apr 09 2021 15:04:53 GMT-0400 (Eastern Daylight Time),images/stripmall-landmark-filler.png,images/buildings-parade-basic_filler.png,40,filler,None.,2,buildings,patricia,NA,stripmalls,buildings,yes,Your friend goes ahead of you. You see your friend in the distance:,NA,pred,landmark,stripmall,35,stripmalls,NA,some_college,small,NA,English,male,37288,You and your friend see the following:,12,1617995093789,NA,buildings_landmark,It is small relative to other,2,NA,congruent,custom_main_text1,small,Your friend says: <br/><b>That's a small stripmall.</b>
2810,What do you think your friend is saying it is small relative to?,Fri Apr 09 2021 15:04:53 GMT-0400 (Eastern Daylight Time),images/dandelion_filler.png,images/flower-parade-basic_filler.png,40,filler,None.,2,flowers,patricia,NA,flowers,dandelions,yes,Your friend goes ahead of you. You see your friend in the distance:,NA,subj,landmark,dandelion,35,dandelions,NA,some_college,small,NA,English,male,8808,You and your friend see the following:,13,1617995093789,NA,flowers_landmark,It is small relative to other,2,NA,congruent,custom_main_text1,small,Your friend says: <br/><b>That dandelion is small.</b>
2810,What do you think your friend is saying it is big relative to?,Fri Apr 09 2021 15:04:53 GMT-0400 (Eastern Daylight Time),images/skyscraper-landmark.png,images/buildings-parade-basic.png,40,critical,None.,2,buildings,patricia,NA,buildings,skyscrapers,yes,Your friend goes ahead of you. You see your friend in the distance:,NA,subj,landmark,skyscraper,35,buildings,NA,some_college,big,NA,English,male,13605,You visit your friend who lives in another city. You take a walk and you see the following:,14,1617995093789,NA,buildings_landmark,It is big relative to other,2,NA,congruent,custom_main_text1,big,Your friend says: <br/><b>That big skyscraper is a landmark.</b>
2810,What do you think your friend is saying it is small relative to?,Fri Apr 09 2021 15:04:53 GMT-0400 (Eastern Daylight Time),images/pug_filler.png,images/dog-parade-basic2_filler.png,40,filler,None.,2,dogs2,patricia,NA,dogs,pugs,yes,Your friend goes ahead of you. You see your friend in the distance:,NA,subj,prize-winner,pug,35,pugs,NA,some_college,small,NA,English,male,5968,You and your friend see the following:,15,1617995093789,NA,dogs2_prize,It is small relative to other,2,NA,congruent,custom_main_text1,small,Your friend says: <br/><b>That pug is small.</b>
2810,What do you think your friend is saying it is big relative to?,Fri Apr 09 2021 15:04:53 GMT-0400 (Eastern Daylight Time),images/sunflower-landmark.png,images/flower-parade-basic-landmark.png,40,critical,None.,2,flowers,patricia,NA,flowers,sunflowers,yes,Your friend goes ahead of you. You see your friend in the distance:,NA,pred,landmark,sunflower,35,sunflowers,NA,some_college,big,NA,English,male,13647,You and your friend walk to a cabin you are renting for the weekend for the first time. You go along the path and you see the following:,16,1617995093789,NA,flowers_landmark,It is big relative to other,2,NA,congruent,custom_main_text1,big,Your friend says: <br/><b>That landmark is a big sunflower.</b>
2809,<i>What do you think Speaker A meant? </i>,Fri Apr 09 2021 12:04:44 GMT-0700 (PDT),NA,NA,40,NA,No,2,NA,Mary,1,NA,NA,yes,NA,"<b> Speaker A: ""The Empire State Building is tall.""</b>",NA,NA,NA,27,Buildings,NA,graduated_college,NA,comp_class_warmup,English,female,NA,In the main trials you will be asked to rephrase something a person said. The utterance will contain a word that is <i>relative</i> and your task is to figure out what it is relative to. <br /> <br /> For example: <br />,1,1617995084665,1,NA,The Empire State Building is tall relative to other,NA,"buildings, skyscrapers, houses, constructions (choose one)",NA,comp_class_warmup,NA,NA
2809,What do you think your friend is saying it is big relative to?,Fri Apr 09 2021 12:04:44 GMT-0700 (PDT),images/tuna_filler.png,images/fish-parade-basic_filler.png,40,filler,No,2,fish,Mary,NA,fish,tunas,yes,Your friend goes ahead of you. You see your friend in the distance:,NA,pred,rescue,tuna,27,fish,NA,graduated_college,big,NA,English,female,16721,You and your friend see the following:,1,1617995084665,NA,fish_rescue,It is big relative to other,NA,NA,congruent,custom_main_text1,big,Your friend says: <br/><b>That's a big tuna.</b>
2809,What do you think your friend is saying it is small relative to?,Fri Apr 09 2021 12:04:44 GMT-0700 (PDT),images/stripmall-landmark.png,images/buildings-parade-basic.png,40,critical,No,2,buildings,Mary,NA,stripmalls,buildings,yes,Your friend goes ahead of you. You see your friend in the distance:,NA,subj,landmark,stripmall,27,buildings,NA,graduated_college,small,NA,English,female,22686,You visit your friend who lives in another city. You take a walk and you see the following:,2,1617995084665,NA,buildings_landmark,It is small relative to other,NA,NA,congruent,custom_main_text1,small,Your friend says: <br/><b>That small stripmall is a landmark.</b>
2809,What do you think your friend is saying it is small relative to?,Fri Apr 09 2021 12:04:44 GMT-0700 (PDT),images/pug_filler.png,images/dog-parade-basic2_filler.png,40,filler,No,2,dogs2,Mary,NA,pugs,dogs,yes,Your friend goes ahead of you. You see your friend in the distance:,NA,pred,present,pug,27,pugs,NA,graduated_college,small,NA,English,female,17299,You and your friend see the following:,3,1617995084665,NA,dogs2_present,It is small relative to other,NA,NA,congruent,custom_main_text1,small,Your friend says: <br/><b>That's a small pug.</b>
2809,What do you think your friend is saying it is small relative to?,Fri Apr 09 2021 12:04:44 GMT-0700 (PDT),images/hummingbird_filler.png,images/bird-parade-basic_filler.png,40,filler,No,2,birds,Mary,NA,hummingbirds,birds,yes,Your friend goes ahead of you. You see your friend in the distance:,NA,subj,rescue,hummingbird,27,birds,NA,graduated_college,small,NA,English,female,7452,You and your friend see the following:,4,1617995084665,NA,birds_rescue,It is small relative to other,NA,NA,congruent,custom_main_text1,small,Your friend says: <br/><b>That hummingbird is small.</b>
2809,What do you think your friend is saying it is big relative to?,Fri Apr 09 2021 12:04:44 GMT-0700 (PDT),images/eagle.png,images/bird-parade-basic.png,40,critical,No,2,birds,Mary,NA,eagles,birds,yes,Your friend goes ahead of you. You see your friend in the distance:,NA,pred,rescue,eagle,27,birds,NA,graduated_college,big,NA,English,female,12652,You visit your friend who works at an animal shelter and you see the following:,5,1617995084665,NA,birds_rescue,It is big relative to other,NA,NA,congruent,custom_main_text1,big,Your friend says: <br/><b>That rescue is a big eagle.</b>
2809,What do you think your friend is saying it is big relative to?,Fri Apr 09 2021 12:04:44 GMT-0700 (PDT),images/sunflower.png,images/flower-parade-basic.png,40,critical,No,2,flowers,Mary,NA,flowers,sunflowers,yes,Your friend goes ahead of you. You see your friend in the distance:,NA,subj,present,sunflower,27,sunflowers,NA,graduated_college,big,NA,English,female,18039,You and your friend are at a garden store and you see the following:,6,1617995084665,NA,flowers_present,It is big relative to other,NA,NA,congruent,custom_main_text1,big,Your friend says: <br/><b>That big sunflower is a present.</b>
2809,What do you think your friend is saying it is big relative to?,Fri Apr 09 2021 12:04:44 GMT-0700 (PDT),images/skyscraper-landmark-filler.png,images/buildings-parade-basic_filler.png,40,filler,No,2,buildings,Mary,NA,skyscrapers,buildings,yes,Your friend goes ahead of you. You see your friend in the distance:,NA,pred,landmark,skyscraper,27,skyscrapers,NA,graduated_college,big,NA,English,female,7736,You and your friend see the following:,7,1617995084665,NA,buildings_landmark,It is big relative to other,NA,NA,congruent,custom_main_text1,big,Your friend says: <br/><b>That's a big skyscraper.</b>
2809,What do you think your friend is saying it is small relative to?,Fri Apr 09 2021 12:04:44 GMT-0700 (PDT),images/clownfish_net.png,images/fish-parade-basic.png,40,critical,No,2,fish,Mary,NA,clownfish,fish,yes,Your friend goes ahead of you. You see your friend in the distance:,NA,subj,rescue,clownfish,27,fish,NA,graduated_college,small,NA,English,female,7879,You visit your friend who works as a marine biologist and you see the following:,8,1617995084665,NA,fish_rescue,It is small relative to other,NA,NA,congruent,custom_main_text1,small,Your friend says: <br/><b>That small clownfish is a rescue.</b>
2809,What do you think your friend is saying it is small relative to?,Fri Apr 09 2021 12:04:44 GMT-0700 (PDT),images/bonsai_stick.png,images/tree-parade-basic.png,40,critical,No,2,trees,Mary,NA,bonsais,trees,yes,Your friend goes ahead of you. You see your friend in the distance:,NA,pred,landmark,bonsai,27,bonsais,NA,graduated_college,small,NA,English,female,23536,You and your friend walk to your friend's cabin in a park for the first time. You want to memorize the path and you see the following:,9,1617995084665,NA,trees_landmark,It is small relative to other,NA,NA,congruent,custom_main_text1,small,Your friend says: <br/><b>That landmark is a small bonsai.</b>
2809,What do you think your friend is saying it is big relative to?,Fri Apr 09 2021 12:04:44 GMT-0700 (PDT),images/great-dane-gift.png,images/dog-parade-basic2-gift.png,40,critical,No,2,dogs2,Mary,NA,dogs,Great Danes,yes,Your friend goes ahead of you. You see your friend in the distance:,NA,subj,present,Great Dane,27,Great,NA,graduated_college,big,NA,English,female,16377,You and your friend are at a pet store and you see the following:,10,1617995084665,NA,dogs2_present,It is big relative to other,NA,NA,congruent,custom_main_text1,big,Your friend says: <br/><b>That big Great Dane is a present.</b>
2809,What do you think your friend is saying it is big relative to?,Fri Apr 09 2021 12:04:44 GMT-0700 (PDT),images/doberman_filler.png,images/dog-parade-basic_filler.png,40,filler,No,2,dogs1,Mary,NA,dobermen,dogs,yes,Your friend goes ahead of you. You see your friend in the distance:,NA,subj,service-animal,doberman,27,dogs,NA,graduated_college,big,NA,English,female,7454,You and your friend see the following:,11,1617995084665,NA,dogs1_service,It is big relative to other,NA,NA,congruent,custom_main_text1,big,Your friend says: <br/><b>That doberman is big.</b>
2809,What do you think your friend is saying it is big relative to?,Fri Apr 09 2021 12:04:44 GMT-0700 (PDT),images/sunflower-landmark.png,images/flower-parade-basic-landmark.png,40,critical,No,2,flowers,Mary,NA,sunflowers,flowers,yes,Your friend goes ahead of you. You see your friend in the distance:,NA,pred,landmark,sunflower,27,flowers,NA,graduated_college,big,NA,English,female,30665,You and your friend walk to a cabin you are renting for the weekend for the first time. You go along the path and you see the following:,12,1617995084665,NA,flowers_landmark,It is big relative to other,NA,NA,congruent,custom_main_text1,big,Your friend says: <br/><b>That landmark is a big sunflower.</b>
2809,What do you think your friend is saying it is small relative to?,Fri Apr 09 2021 12:04:44 GMT-0700 (PDT),images/dandelion_filler.png,images/flower-parade-basic_filler.png,40,filler,No,2,flowers,Mary,NA,flowers,dandelions,yes,Your friend goes ahead of you. You see your friend in the distance:,NA,pred,present,dandelion,27,dandelions,NA,graduated_college,small,NA,English,female,3946,You and your friend see the following:,13,1617995084665,NA,flowers_present,It is small relative to other,NA,NA,congruent,custom_main_text1,small,Your friend says: <br/><b>That's a small dandelion.</b>
2809,What do you think your friend is saying it is big relative to?,Fri Apr 09 2021 12:04:44 GMT-0700 (PDT),images/redwood_filler.png,images/tree-parade-basic_filler.png,40,filler,No,2,trees,Mary,NA,redwoods,trees,yes,Your friend goes ahead of you. You see your friend in the distance:,NA,subj,landmark,redwood,27,redwoods,NA,graduated_college,big,NA,English,female,5898,You and your friend see the following:,14,1617995084665,NA,trees_landmark,It is big relative to other,NA,NA,congruent,custom_main_text1,big,Your friend says: <br/><b>That redwood is big.</b>
2809,What do you think your friend is saying it is small relative to?,Fri Apr 09 2021 12:04:44 GMT-0700 (PDT),images/chihuahua.png,images/dog-parade-basic.png,40,critical,No,2,dogs1,Mary,NA,dogs,chihuahuas,yes,Your friend goes ahead of you. You see your friend in the distance:,NA,pred,service-animal,chihuahua,27,chihuahuas,NA,graduated_college,small,NA,English,female,5934,You and your friend are at an animal training ground and you see the following:,15,1617995084665,NA,dogs1_service,It is small relative to other,NA,NA,congruent,custom_main_text1,small,Your friend says: <br/><b>That service-animal is a small chihuahua.</b>
2809,What do you think your friend is saying it is small relative to?,Fri Apr 09 2021 12:04:44 GMT-0700 (PDT),images/dandelion_filler.png,images/flower-parade-basic_filler.png,40,filler,No,2,flowers,Mary,NA,dandelions,flowers,yes,Your friend goes ahead of you. You see your friend in the distance:,NA,subj,landmark,dandelion,27,dandelions,NA,graduated_college,small,NA,English,female,4178,You and your friend see the following:,16,1617995084665,NA,flowers_landmark,It is small relative to other,NA,NA,congruent,custom_main_text1,small,Your friend says: <br/><b>That dandelion is small.</b>
2808,<i>What do you think Speaker A meant? </i>,Fri Apr 09 2021 14:56:25 GMT-0400 (Eastern Daylight Time),NA,NA,40,NA,None,2,NA,jennifer,1,NA,NA,NA,NA,"<b> Speaker A: ""The Empire State Building is tall.""</b>",NA,NA,NA,NA,buildings,NA,NA,NA,comp_class_warmup,English,NA,NA,In the main trials you will be asked to rephrase something a person said. The utterance will contain a word that is <i>relative</i> and your task is to figure out what it is relative to. <br /> <br /> For example: <br />,1,1617994585636,1,NA,The Empire State Building is tall relative to other,0.5,"buildings, skyscrapers, houses, constructions (choose one)",NA,comp_class_warmup,NA,NA
2808,What do you think your friend is saying it is small relative to?,Fri Apr 09 2021 14:56:25 GMT-0400 (Eastern Daylight Time),images/chihuahua_filler.png,images/dog-parade-basic_filler.png,40,filler,None,2,dogs1,jennifer,NA,chihuahuas,dogs,NA,Your friend goes ahead of you. You see your friend in the distance:,NA,pred,service-animal,chihuahua,NA,dogs,NA,NA,small,NA,English,NA,54625,You and your friend see the following:,1,1617994585636,NA,dogs1_service,It is small relative to other,0.5,NA,congruent,custom_main_text1,small,Your friend says: <br/><b>That's a small chihuahua.</b>
2808,What do you think your friend is saying it is big relative to?,Fri Apr 09 2021 14:56:25 GMT-0400 (Eastern Daylight Time),images/eagle_filler.png,images/bird-parade-basic_filler.png,40,filler,None,2,birds,jennifer,NA,birds,eagles,NA,Your friend goes ahead of you. You see your friend in the distance:,NA,subj,rescue,eagle,NA,birds,NA,NA,big,NA,English,NA,42992,You and your friend see the following:,2,1617994585636,NA,birds_rescue,It is big relative to other,0.5,NA,congruent,custom_main_text1,big,Your friend says: <br/><b>That eagle is big.</b>
2808,What do you think your friend is saying it is small relative to?,Fri Apr 09 2021 14:56:25 GMT-0400 (Eastern Daylight Time),images/pug.png,images/dog-parade-basic2.png,40,critical,None,2,dogs2,jennifer,NA,pugs,dogs,NA,Your friend goes ahead of you. You see your friend in the distance:,NA,pred,prize-winner,pug,NA,dogs,NA,NA,small,NA,English,NA,37862,You and your friend are at a pet show and you see the following:,3,1617994585636,NA,dogs2_prize,It is small relative to other,0.5,NA,congruent,custom_main_text1,small,Your friend says: <br/><b>That prize-winner is a small pug.</b>
2808,What do you think your friend is saying it is big relative to?,Fri Apr 09 2021 14:56:25 GMT-0400 (Eastern Daylight Time),images/sunflower_filler.png,images/flower-parade-basic_filler.png,40,filler,None,2,flowers,jennifer,NA,flowers,sunflowers,NA,Your friend goes ahead of you. You see your friend in the distance:,NA,pred,present,sunflower,NA,sunflowers,NA,NA,big,NA,English,NA,30154,You and your friend see the following:,4,1617994585636,NA,flowers_present,It is big relative to other,0.5,NA,congruent,custom_main_text1,big,Your friend says: <br/><b>That's a big sunflower.</b>
2808,What do you think your friend is saying it is big relative to?,Fri Apr 09 2021 14:56:25 GMT-0400 (Eastern Daylight Time),images/doberman.png,images/dog-parade-basic.png,40,critical,None,2,dogs1,jennifer,NA,dogs,dobermen,NA,Your friend goes ahead of you. You see your friend in the distance:,NA,subj,service-animal,doberman,NA,dobermen,NA,NA,big,NA,English,NA,43934,You and your friend are at an animal training ground and you see the following:,5,1617994585636,NA,dogs1_service,It is big relative to other,0.5,NA,congruent,custom_main_text1,big,Your friend says: <br/><b>That big doberman is a service-animal.</b>
2808,What do you think your friend is saying it is small relative to?,Fri Apr 09 2021 14:56:25 GMT-0400 (Eastern Daylight Time),images/clownfish_filler.png,images/fish-parade-basic_filler.png,40,filler,None,2,fish,jennifer,NA,clownfish,fish,NA,Your friend goes ahead of you. You see your friend in the distance:,NA,pred,rescue,clownfish,NA,fish,NA,NA,small,NA,English,NA,25110,You and your friend see the following:,6,1617994585636,NA,fish_rescue,It is small relative to other,0.5,NA,congruent,custom_main_text1,small,Your friend says: <br/><b>That's a small clownfish.</b>
2808,What do you think your friend is saying it is small relative to?,Fri Apr 09 2021 14:56:25 GMT-0400 (Eastern Daylight Time),images/dandelion.png,images/flower-parade-basic.png,40,critical,None,2,flowers,jennifer,NA,flowers,dandelions,NA,Your friend goes ahead of you. You see your friend in the distance:,NA,subj,present,dandelion,NA,flowers,NA,NA,small,NA,English,NA,35580,You and your friend are at a garden store and you see the following:,7,1617994585636,NA,flowers_present,It is small relative to other,0.5,NA,congruent,custom_main_text1,small,Your friend says: <br/><b>That small dandelion is a present.</b>
2808,What do you think your friend is saying it is small relative to?,Fri Apr 09 2021 14:56:25 GMT-0400 (Eastern Daylight Time),images/hummingbird.png,images/bird-parade-basic.png,40,critical,None,2,birds,jennifer,NA,birds,hummingbirds,NA,Your friend goes ahead of you. You see your friend in the distance:,NA,pred,rescue,hummingbird,NA,birds,NA,NA,small,NA,English,NA,30918,You visit your friend who works at an animal shelter and you see the following:,8,1617994585636,NA,birds_rescue,It is small relative to other,0.5,NA,congruent,custom_main_text1,small,Your friend says: <br/><b>That rescue is a small hummingbird.</b>
