submission_id,question,response1,target_picture,context_picture,experiment_id,picture2,correct1,trial_type,question1,problems,enjoyment,item,botresponse,trials,correct2,understand,text,sentence,syntax,ref_np,target,age,response,comments,picture1,response3,education,target_size,name,languages,sex,RT,correct3,context,trial_number,startTime,attempts,paraphrase,question3,fairprice,question2,response2,correct,adj_cond,trial_name,adj,utterance
2323,NA,clownfish,NA,NA,35,warmup/tuna2.png,clownfish,NA,This is a,Nope,1,fish,Margaret,NA,tuna,confused,Please label the pictures below.,NA,NA,NA,NA,37,NA,I think I did it correctly but not sure entirely.,warmup/clownfish2.png,fish,higher_degree,NA,NA,English,male,NA,fish,NA,1,1607555782462,1,NA,This is a,0.5,These are both,tuna fish,NA,NA,warmup1,NA,NA
2323,NA,clownfish,NA,NA,35,warmup/tuna2.png,clownfish,NA,This is a,Nope,1,fish,Margaret,NA,tuna,confused,Please label the pictures below.,NA,NA,NA,NA,37,NA,I think I did it correctly but not sure entirely.,warmup/clownfish2.png,fish,higher_degree,NA,NA,English,male,NA,fish,NA,1,1607555782462,2,NA,This is a,0.5,These are both,tuna,NA,NA,warmup1,NA,NA
2323,NA,bonsai,NA,NA,35,warmup/redwood2.png,bonsai,NA,This is a,Nope,1,trees,Margaret,NA,redwood or sequoia (choose one),confused,Please label the pictures below.,NA,NA,NA,NA,37,NA,I think I did it correctly but not sure entirely.,warmup/bonsai2.png,trees,higher_degree,NA,NA,English,male,NA,trees,NA,2,1607555782462,1,NA,This is a,0.5,These are both,redwood,NA,NA,warmup1,NA,NA
2323,<i>What do you think Speaker A meant? </i>,NA,NA,NA,35,NA,NA,NA,NA,Nope,1,NA,Margaret,1,NA,confused,NA,"<b> Speaker A: ""The Empire State Building is tall.""</b>",NA,NA,NA,37,buildings,I think I did it correctly but not sure entirely.,NA,NA,higher_degree,NA,comp_class_warmup,English,male,NA,NA,In the main trials you will be asked to rephrase something a person said. The utterance will contain a word that is <i>relative</i> and your task is to figure out what it is relative to. <br /> <br /> For example: <br />,1,1607555782462,1,The Empire State Building is tall relative to other,NA,0.5,NA,NA,"buildings, skyscrapers, houses, constructions (choose one)",NA,comp_class_warmup,NA,NA
2323,What do you think your friend is saying it is small relative to?,NA,images/bonsai_filler.png,images/tree-parade-basic_filler.png,35,NA,NA,filler,NA,Nope,1,trees,Margaret,NA,NA,confused,Your friend goes ahead of you. You see your friend in the distance:,NA,pred,landmark,bonsai,37,trees,I think I did it correctly but not sure entirely.,NA,NA,higher_degree,small,NA,English,male,14064,NA,You and your friend see the following:,1,1607555782462,NA,It is small relative to other,NA,0.5,NA,NA,NA,congruent,custom_main_text1,small,Your friend says: <br/><b>That's a small bonsai.</b>
2323,What do you think your friend is saying it is small relative to?,NA,images/clownfish_net.png,images/fish-parade-basic.png,35,NA,NA,critical,NA,Nope,1,fish,Margaret,NA,NA,confused,Your friend goes ahead of you. You see your friend in the distance:,NA,subj,rescue,clownfish,37,fish,I think I did it correctly but not sure entirely.,NA,NA,higher_degree,small,NA,English,male,12890,NA,You visit your friend who works as a marine biologist and you see the following:,2,1607555782462,NA,It is small relative to other,NA,0.5,NA,NA,NA,congruent,custom_main_text1,small,Your friend says: <br/><b>That small clownfish is a rescue.</b>
2323,What do you think your friend is saying it is big relative to?,NA,images/tuna_filler.png,images/fish-parade-basic_filler.png,35,NA,NA,filler,NA,Nope,1,fish,Margaret,NA,NA,confused,Your friend goes ahead of you. You see your friend in the distance:,NA,pred,rescue,tuna,37,fish,I think I did it correctly but not sure entirely.,NA,NA,higher_degree,big,NA,English,male,8809,NA,You and your friend see the following:,3,1607555782462,NA,It is big relative to other,NA,0.5,NA,NA,NA,congruent,custom_main_text1,big,Your friend says: <br/><b>That's a big tuna.</b>
2323,What do you think your friend is saying it is big relative to?,NA,images/redwood_sign.png,images/tree-parade-basic.png,35,NA,NA,critical,NA,Nope,1,trees,Margaret,NA,NA,confused,Your friend goes ahead of you. You see your friend in the distance:,NA,subj,landmark,redwood,37,trees,I think I did it correctly but not sure entirely.,NA,NA,higher_degree,big,NA,English,male,15893,NA,You and your friend walk to your friend's cabin in a park for the first time. You want to memorize the path and you see the following:,4,1607555782462,NA,It is big relative to other,NA,0.5,NA,NA,NA,congruent,custom_main_text1,big,Your friend says: <br/><b>That big redwood is a landmark.</b>
2323,NA,Great Dane,NA,NA,35,warmup/pug2.png,great dane,NA,This is a,Nope,1,dogs2,Margaret,NA,pug,confused,Please label the pictures below.,NA,NA,NA,NA,37,NA,I think I did it correctly but not sure entirely.,warmup/great-dane2.png,dogs,higher_degree,NA,NA,English,male,NA,dogs,NA,1,1607555782462,1,NA,This is a,0.5,These are both,pug,NA,NA,warmup2,NA,NA
2323,NA,sunflower,NA,NA,35,warmup/dandelion2.png,sunflower,NA,This is a,Nope,1,flowers,Margaret,NA,dandelion,confused,Please label the pictures below.,NA,NA,NA,NA,37,NA,I think I did it correctly but not sure entirely.,warmup/sunflower2.png,flowers,higher_degree,NA,NA,English,male,NA,flowers,NA,2,1607555782462,1,NA,This is a,0.5,These are both,dandelion,NA,NA,warmup2,NA,NA
2323,What do you think your friend is saying it is big relative to?,NA,images/sunflower_filler.png,images/flower-parade-basic_filler.png,35,NA,NA,filler,NA,Nope,1,flowers,Margaret,NA,NA,confused,Your friend goes ahead of you. You see your friend in the distance:,NA,subj,gift,sunflower,37,flowers,I think I did it correctly but not sure entirely.,NA,NA,higher_degree,big,NA,English,male,5089,NA,You and your friend see the following:,1,1607555782462,NA,It is big relative to other,NA,0.5,NA,NA,NA,congruent,custom_main_text2,big,Your friend says: <br/><b>That sunflower is big.</b>
2323,What do you think your friend is saying it is small relative to?,NA,images/pug_filler.png,images/dog-parade-basic2_filler.png,35,NA,NA,filler,NA,Nope,1,dogs2,Margaret,NA,NA,confused,Your friend goes ahead of you. You see your friend in the distance:,NA,subj,prize-winner,pug,37,dogs,I think I did it correctly but not sure entirely.,NA,NA,higher_degree,small,NA,English,male,5297,NA,You and your friend see the following:,2,1607555782462,NA,It is small relative to other,NA,0.5,NA,NA,NA,congruent,custom_main_text2,small,Your friend says: <br/><b>That pug is small.</b>
2323,What do you think your friend is saying it is big relative to?,NA,images/great-dane.png,images/dog-parade-basic2.png,35,NA,NA,critical,NA,Nope,1,dogs2,Margaret,NA,NA,confused,Your friend goes ahead of you. You see your friend in the distance:,NA,pred,prize-winner,Great Dane,37,dogs,I think I did it correctly but not sure entirely.,NA,NA,higher_degree,big,NA,English,male,9541,NA,You and your friend are at a pet show and you see the following:,3,1607555782462,NA,It is big relative to other,NA,0.5,NA,NA,NA,congruent,custom_main_text2,big,Your friend says: <br/><b>That prize-winner is a big Great Dane.</b>
2323,What do you think your friend is saying it is small relative to?,NA,images/dandelion.png,images/flower-parade-basic.png,35,NA,NA,critical,NA,Nope,1,flowers,Margaret,NA,NA,confused,Your friend goes ahead of you. You see your friend in the distance:,NA,pred,gift,dandelion,37,flowers,I think I did it correctly but not sure entirely.,NA,NA,higher_degree,small,NA,English,male,10062,NA,You and your friend are at a garden store and you see the following:,4,1607555782462,NA,It is small relative to other,NA,0.5,NA,NA,NA,congruent,custom_main_text2,small,Your friend says: <br/><b>That gift is a small dandelion.</b>
2322,NA,stripmall,NA,NA,35,warmup/skyscraper2.png,stripmall,NA,This is a,no,1,buildings,margaret,NA,skyscraper,confused,Please label the pictures below.,NA,NA,NA,NA,40,NA,na,warmup/stripmall2.png,buildings,graduated_college,NA,NA,English,female,NA,buildings,NA,1,1607553243786,1,NA,This is a,10,These are both,skyscraper,NA,NA,warmup1,NA,NA
2322,NA,dandelion,NA,NA,35,warmup/sunflower2.png,dandelion,NA,This is a,no,1,flowers,margaret,NA,sunflower,confused,Please label the pictures below.,NA,NA,NA,NA,40,NA,na,warmup/dandelion2.png,flowers,graduated_college,NA,NA,English,female,NA,flowers,NA,2,1607553243786,1,NA,This is a,10,These are both,sunflower,NA,NA,warmup1,NA,NA
2322,<i>What do you think Speaker A meant? </i>,NA,NA,NA,35,NA,NA,NA,NA,no,1,NA,margaret,1,NA,confused,NA,"<b> Speaker A: ""The Empire State Building is tall.""</b>",NA,NA,NA,40,buildings,na,NA,NA,graduated_college,NA,comp_class_warmup,English,female,NA,NA,In the main trials you will be asked to rephrase something a person said. The utterance will contain a word that is <i>relative</i> and your task is to figure out what it is relative to. <br /> <br /> For example: <br />,1,1607553243786,1,The Empire State Building is tall relative to other,NA,10,NA,NA,"buildings, skyscrapers, houses, constructions (choose one)",NA,comp_class_warmup,NA,NA
2322,What do you think your friend is saying it is small relative to?,NA,images/dandelion_filler.png,images/flower-parade-basic_filler.png,35,NA,NA,filler,NA,no,1,flowers,margaret,NA,NA,confused,Your friend goes ahead of you. You see your friend in the distance:,NA,subj,gift,dandelion,40,flowers,na,NA,NA,graduated_college,small,NA,English,female,11296,NA,You and your friend see the following:,1,1607553243786,NA,It is small relative to other,NA,10,NA,NA,NA,congruent,custom_main_text1,small,Your friend says: <br/><b>That dandelion is small.</b>
2322,What do you think your friend is saying it is big relative to?,NA,images/skyscraper-landmark-filler.png,images/buildings-parade-basic_filler.png,35,NA,NA,filler,NA,no,1,buildings,margaret,NA,NA,confused,Your friend goes ahead of you. You see your friend in the distance:,NA,subj,landmark,skyscraper,40,buildings,na,NA,NA,graduated_college,big,NA,English,female,38880,NA,You and your friend see the following:,2,1607553243786,NA,It is big relative to other,NA,10,NA,NA,NA,congruent,custom_main_text1,big,Your friend says: <br/><b>That skyscraper is big.</b>
2322,What do you think your friend is saying it is big relative to?,NA,images/sunflower.png,images/flower-parade-basic.png,35,NA,NA,critical,NA,no,1,flowers,margaret,NA,NA,confused,Your friend goes ahead of you. You see your friend in the distance:,NA,pred,gift,sunflower,40,flowers,na,NA,NA,graduated_college,big,NA,English,female,26101,NA,You and your friend are at a garden store and you see the following:,3,1607553243786,NA,It is big relative to other,NA,10,NA,NA,NA,congruent,custom_main_text1,big,Your friend says: <br/><b>That gift is a big sunflower.</b>
2322,What do you think your friend is saying it is small relative to?,NA,images/stripmall-landmark.png,images/buildings-parade-basic.png,35,NA,NA,critical,NA,no,1,buildings,margaret,NA,NA,confused,Your friend goes ahead of you. You see your friend in the distance:,NA,pred,landmark,stripmall,40,landmarks,na,NA,NA,graduated_college,small,NA,English,female,39769,NA,You visit your friend who lives in another city. You take a walk and you see the following:,4,1607553243786,NA,It is small relative to other,NA,10,NA,NA,NA,congruent,custom_main_text1,small,Your friend says: <br/><b>That landmark is a small stripmall.</b>
2322,NA,pug,NA,NA,35,warmup/great-dane2.png,pug,NA,This is a,no,1,dogs2,margaret,NA,great dane,confused,Please label the pictures below.,NA,NA,NA,NA,40,NA,na,warmup/pug2.png,dogs,graduated_college,NA,NA,English,female,NA,dogs,NA,1,1607553243786,1,NA,This is a,10,These are both,great dane,NA,NA,warmup2,NA,NA
2322,NA,doberman,NA,NA,35,warmup/chihuahua2.png,doberman,NA,This is a,no,1,dogs1,margaret,NA,chihuahua,confused,Please label the pictures below.,NA,NA,NA,NA,40,NA,na,warmup/doberman2.png,dogs,graduated_college,NA,NA,English,female,NA,dogs,NA,2,1607553243786,1,NA,This is a,10,These are both,chihuahua,NA,NA,warmup2,NA,NA
2322,What do you think your friend is saying it is small relative to?,NA,images/chihuahua_filler.png,images/dog-parade-basic_filler.png,35,NA,NA,filler,NA,no,1,dogs1,margaret,NA,NA,confused,Your friend goes ahead of you. You see your friend in the distance:,NA,pred,service-animal,chihuahua,40,chihuahuas,na,NA,NA,graduated_college,small,NA,English,female,17304,NA,You and your friend see the following:,1,1607553243786,NA,It is small relative to other,NA,10,NA,NA,NA,congruent,custom_main_text2,small,Your friend says: <br/><b>That's a small chihuahua.</b>
2322,What do you think your friend is saying it is small relative to?,NA,images/pug.png,images/dog-parade-basic2.png,35,NA,NA,critical,NA,no,1,dogs2,margaret,NA,NA,confused,Your friend goes ahead of you. You see your friend in the distance:,NA,subj,prize-winner,pug,40,pugs,na,NA,NA,graduated_college,small,NA,English,female,18224,NA,You and your friend are at a pet show and you see the following:,2,1607553243786,NA,It is small relative to other,NA,10,NA,NA,NA,congruent,custom_main_text2,small,Your friend says: <br/><b>That small pug is a prize-winner.</b>
2322,What do you think your friend is saying it is big relative to?,NA,images/great-dane_filler.png,images/dog-parade-basic2_filler.png,35,NA,NA,filler,NA,no,1,dogs2,margaret,NA,NA,confused,Your friend goes ahead of you. You see your friend in the distance:,NA,pred,prize-winner,Great Dane,40,dogs,na,NA,NA,graduated_college,big,NA,English,female,11295,NA,You and your friend see the following:,3,1607553243786,NA,It is big relative to other,NA,10,NA,NA,NA,congruent,custom_main_text2,big,Your friend says: <br/><b>That's a big Great Dane.</b>
2322,What do you think your friend is saying it is big relative to?,NA,images/doberman.png,images/dog-parade-basic.png,35,NA,NA,critical,NA,no,1,dogs1,margaret,NA,NA,confused,Your friend goes ahead of you. You see your friend in the distance:,NA,subj,service-animal,doberman,40,dogs,na,NA,NA,graduated_college,big,NA,English,female,36203,NA,You and your friend are at an animal training ground and you see the following:,4,1607553243786,NA,It is big relative to other,NA,10,NA,NA,NA,congruent,custom_main_text2,big,Your friend says: <br/><b>That big doberman is a service-animal.</b>
2321,NA,chihuahua,NA,NA,35,warmup/doberman2.png,chihuahua,NA,This is a,No,2,dogs1,Barbara,NA,doberman,yes,Please label the pictures below.,NA,NA,NA,NA,49,NA,I love this work,warmup/chihuahua2.png,Dog,higher_degree,NA,NA,English,male,NA,dogs,NA,1,1607556017859,1,NA,This is a,1.12,These are both,doberman,NA,NA,warmup1,NA,NA
2321,NA,sunflower,NA,NA,35,warmup/dandelion2.png,sunflower,NA,This is a,No,2,flowers,Barbara,NA,dandelion,yes,Please label the pictures below.,NA,NA,NA,NA,49,NA,I love this work,warmup/sunflower2.png,Flower,higher_degree,NA,NA,English,male,NA,flowers,NA,2,1607556017859,1,NA,This is a,1.12,These are both,dandelion,NA,NA,warmup1,NA,NA
2321,<i>What do you think Speaker A meant? </i>,NA,NA,NA,35,NA,NA,NA,NA,No,2,NA,Barbara,1,NA,yes,NA,"<b> Speaker A: ""The Empire State Building is tall.""</b>",NA,NA,NA,49,buildings,I love this work,NA,NA,higher_degree,NA,comp_class_warmup,English,male,NA,NA,In the main trials you will be asked to rephrase something a person said. The utterance will contain a word that is <i>relative</i> and your task is to figure out what it is relative to. <br /> <br /> For example: <br />,1,1607556017859,1,The Empire State Building is tall relative to other,NA,1.12,NA,NA,"buildings, skyscrapers, houses, constructions (choose one)",NA,comp_class_warmup,NA,NA
2321,What do you think your friend is saying it is small relative to?,NA,images/dandelion_filler.png,images/flower-parade-basic_filler.png,35,NA,NA,filler,NA,No,2,flowers,Barbara,NA,NA,yes,Your friend goes ahead of you. You see your friend in the distance:,NA,pred,gift,dandelion,49,corona,I love this work,NA,NA,higher_degree,small,NA,English,male,24332,NA,You and your friend see the following:,1,1607556017859,NA,It is small relative to other,NA,1.12,NA,NA,NA,congruent,custom_main_text1,small,Your friend says: <br/><b>That's a small dandelion.</b>
2321,What do you think your friend is saying it is big relative to?,NA,images/doberman.png,images/dog-parade-basic.png,35,NA,NA,critical,NA,No,2,dogs1,Barbara,NA,NA,yes,Your friend goes ahead of you. You see your friend in the distance:,NA,pred,service-animal,doberman,49,animal,I love this work,NA,NA,higher_degree,big,NA,English,male,102030,NA,You and your friend are at an animal training ground and you see the following:,2,1607556017859,NA,It is big relative to other,NA,1.12,NA,NA,NA,congruent,custom_main_text1,big,Your friend says: <br/><b>That service-animal is a big doberman.</b>
2321,What do you think your friend is saying it is big relative to?,NA,images/sunflower.png,images/flower-parade-basic.png,35,NA,NA,critical,NA,No,2,flowers,Barbara,NA,NA,yes,Your friend goes ahead of you. You see your friend in the distance:,NA,subj,gift,sunflower,49,sunflower,I love this work,NA,NA,higher_degree,big,NA,English,male,26347,NA,You and your friend are at a garden store and you see the following:,3,1607556017859,NA,It is big relative to other,NA,1.12,NA,NA,NA,congruent,custom_main_text1,big,Your friend says: <br/><b>That big sunflower is a gift.</b>
2321,What do you think your friend is saying it is small relative to?,NA,images/chihuahua_filler.png,images/dog-parade-basic_filler.png,35,NA,NA,filler,NA,No,2,dogs1,Barbara,NA,NA,yes,Your friend goes ahead of you. You see your friend in the distance:,NA,subj,service-animal,chihuahua,49,animal,I love this work,NA,NA,higher_degree,small,NA,English,male,39616,NA,You and your friend see the following:,4,1607556017859,NA,It is small relative to other,NA,1.12,NA,NA,NA,congruent,custom_main_text1,small,Your friend says: <br/><b>That chihuahua is small.</b>
2321,NA,pug,NA,NA,35,warmup/great-dane2.png,pug,NA,This is a,No,2,dogs2,Barbara,NA,great dane,yes,Please label the pictures below.,NA,NA,NA,NA,49,NA,I love this work,warmup/pug2.png,Dogs,higher_degree,NA,NA,English,male,NA,dogs,NA,1,1607556017859,1,NA,This is a,1.12,These are both,grate dane,NA,NA,warmup2,NA,NA
2321,NA,pug,NA,NA,35,warmup/great-dane2.png,pug,NA,This is a,No,2,dogs2,Barbara,NA,great dane,yes,Please label the pictures below.,NA,NA,NA,NA,49,NA,I love this work,warmup/pug2.png,Dogs,higher_degree,NA,NA,English,male,NA,dogs,NA,1,1607556017859,2,NA,This is a,1.12,These are both,great dane,NA,NA,warmup2,NA,NA
2321,NA,eagle,NA,NA,35,warmup/hummingbird2.png,eagle,NA,This is a,No,2,birds,Barbara,NA,hummingbird,yes,Please label the pictures below.,NA,NA,NA,NA,49,NA,I love this work,warmup/eagle2.png,Birds,higher_degree,NA,NA,English,male,NA,birds,NA,2,1607556017859,1,NA,This is an,1.12,These are both,hummingbird,NA,NA,warmup2,NA,NA
2321,What do you think your friend is saying it is big relative to?,NA,images/eagle_filler.png,images/bird-parade-basic_filler.png,35,NA,NA,filler,NA,No,2,birds,Barbara,NA,NA,yes,Your friend goes ahead of you. You see your friend in the distance:,NA,pred,rescue,eagle,49,eagle,I love this work,NA,NA,higher_degree,big,NA,English,male,456402,NA,You and your friend see the following:,1,1607556017859,NA,It is big relative to other,NA,1.12,NA,NA,NA,congruent,custom_main_text2,big,Your friend says: <br/><b>That's a big eagle.</b>
2321,What do you think your friend is saying it is small relative to?,NA,images/pug.png,images/dog-parade-basic2.png,35,NA,NA,critical,NA,No,2,dogs2,Barbara,NA,NA,yes,Your friend goes ahead of you. You see your friend in the distance:,NA,pred,prize-winner,pug,49,pug,I love this work,NA,NA,higher_degree,small,NA,English,male,16986,NA,You and your friend are at a pet show and you see the following:,2,1607556017859,NA,It is small relative to other,NA,1.12,NA,NA,NA,congruent,custom_main_text2,small,Your friend says: <br/><b>That prize-winner is a small pug.</b>
2321,What do you think your friend is saying it is small relative to?,NA,images/hummingbird.png,images/bird-parade-basic.png,35,NA,NA,critical,NA,No,2,birds,Barbara,NA,NA,yes,Your friend goes ahead of you. You see your friend in the distance:,NA,subj,rescue,hummingbird,49,hummingbird,I love this work,NA,NA,higher_degree,small,NA,English,male,49503,NA,You visit your friend who works at an animal shelter and you see the following:,3,1607556017859,NA,It is small relative to other,NA,1.12,NA,NA,NA,congruent,custom_main_text2,small,Your friend says: <br/><b>That small hummingbird is a rescue.</b>
2321,What do you think your friend is saying it is big relative to?,NA,images/great-dane_filler.png,images/dog-parade-basic2_filler.png,35,NA,NA,filler,NA,No,2,dogs2,Barbara,NA,NA,yes,Your friend goes ahead of you. You see your friend in the distance:,NA,subj,prize-winner,Great Dane,49,Great Dane,I love this work,NA,NA,higher_degree,big,NA,English,male,9507,NA,You and your friend see the following:,4,1607556017859,NA,It is big relative to other,NA,1.12,NA,NA,NA,congruent,custom_main_text2,big,Your friend says: <br/><b>That Great Dane is big.</b>
2320,NA,grate danne,NA,NA,35,warmup/pug2.png,great dane,NA,This is a,No,0,dogs2,Patricia,NA,pug,yes,Please label the pictures below.,NA,NA,NA,NA,50,NA,I love this work,warmup/great-dane2.png,Dog,higher_degree,NA,NA,English,male,NA,dogs,NA,1,1607555768953,1,NA,This is a,1.12,These are both,pug,NA,NA,warmup1,NA,NA
2320,NA,grate dann,NA,NA,35,warmup/pug2.png,great dane,NA,This is a,No,0,dogs2,Patricia,NA,pug,yes,Please label the pictures below.,NA,NA,NA,NA,50,NA,I love this work,warmup/great-dane2.png,Dog,higher_degree,NA,NA,English,male,NA,dogs,NA,1,1607555768953,2,NA,This is a,1.12,These are both,pug,NA,NA,warmup1,NA,NA
2320,NA,grate dan,NA,NA,35,warmup/pug2.png,great dane,NA,This is a,No,0,dogs2,Patricia,NA,pug,yes,Please label the pictures below.,NA,NA,NA,NA,50,NA,I love this work,warmup/great-dane2.png,Dog,higher_degree,NA,NA,English,male,NA,dogs,NA,1,1607555768953,3,NA,This is a,1.12,These are both,pug,NA,NA,warmup1,NA,NA
2320,NA,grate dane,NA,NA,35,warmup/pug2.png,great dane,NA,This is a,No,0,dogs2,Patricia,NA,pug,yes,Please label the pictures below.,NA,NA,NA,NA,50,NA,I love this work,warmup/great-dane2.png,Dog,higher_degree,NA,NA,English,male,NA,dogs,NA,1,1607555768953,4,NA,This is a,1.12,These are both,pug,NA,NA,warmup1,NA,NA
2320,NA,gratedane,NA,NA,35,warmup/pug2.png,great dane,NA,This is a,No,0,dogs2,Patricia,NA,pug,yes,Please label the pictures below.,NA,NA,NA,NA,50,NA,I love this work,warmup/great-dane2.png,Dog,higher_degree,NA,NA,English,male,NA,dogs,NA,1,1607555768953,5,NA,This is a,1.12,These are both,pug,NA,NA,warmup1,NA,NA
2320,NA,great dane,NA,NA,35,warmup/pug2.png,great dane,NA,This is a,No,0,dogs2,Patricia,NA,pug,yes,Please label the pictures below.,NA,NA,NA,NA,50,NA,I love this work,warmup/great-dane2.png,Dog,higher_degree,NA,NA,English,male,NA,dogs,NA,1,1607555768953,6,NA,This is a,1.12,These are both,pug,NA,NA,warmup1,NA,NA
2320,NA,bonsa,NA,NA,35,warmup/redwood2.png,bonsai,NA,This is a,No,0,trees,Patricia,NA,redwood or sequoia (choose one),yes,Please label the pictures below.,NA,NA,NA,NA,50,NA,I love this work,warmup/bonsai2.png,Tree,higher_degree,NA,NA,English,male,NA,trees,NA,2,1607555768953,1,NA,This is a,1.12,These are both,redwood,NA,NA,warmup1,NA,NA
2320,NA,bonsai,NA,NA,35,warmup/redwood2.png,bonsai,NA,This is a,No,0,trees,Patricia,NA,redwood or sequoia (choose one),yes,Please label the pictures below.,NA,NA,NA,NA,50,NA,I love this work,warmup/bonsai2.png,Tree,higher_degree,NA,NA,English,male,NA,trees,NA,2,1607555768953,2,NA,This is a,1.12,These are both,redwood,NA,NA,warmup1,NA,NA
2320,<i>What do you think Speaker A meant? </i>,NA,NA,NA,35,NA,NA,NA,NA,No,0,NA,Patricia,1,NA,yes,NA,"<b> Speaker A: ""The Empire State Building is tall.""</b>",NA,NA,NA,50,building's,I love this work,NA,NA,higher_degree,NA,comp_class_warmup,English,male,NA,NA,In the main trials you will be asked to rephrase something a person said. The utterance will contain a word that is <i>relative</i> and your task is to figure out what it is relative to. <br /> <br /> For example: <br />,1,1607555768953,1,The Empire State Building is tall relative to other,NA,1.12,NA,NA,"buildings, skyscrapers, houses, constructions (choose one)",NA,comp_class_warmup,NA,NA
2320,<i>What do you think Speaker A meant? </i>,NA,NA,NA,35,NA,NA,NA,NA,No,0,NA,Patricia,1,NA,yes,NA,"<b> Speaker A: ""The Empire State Building is tall.""</b>",NA,NA,NA,50,buildings,I love this work,NA,NA,higher_degree,NA,comp_class_warmup,English,male,NA,NA,In the main trials you will be asked to rephrase something a person said. The utterance will contain a word that is <i>relative</i> and your task is to figure out what it is relative to. <br /> <br /> For example: <br />,1,1607555768953,2,The Empire State Building is tall relative to other,NA,1.12,NA,NA,"buildings, skyscrapers, houses, constructions (choose one)",NA,comp_class_warmup,NA,NA
2320,What do you think your friend is saying it is big relative to?,NA,images/redwood_filler.png,images/tree-parade-basic_filler.png,35,NA,NA,filler,NA,No,0,trees,Patricia,NA,NA,yes,Your friend goes ahead of you. You see your friend in the distance:,NA,pred,landmark,redwood,50,problem,I love this work,NA,NA,higher_degree,big,NA,English,male,89842,NA,You and your friend see the following:,1,1607555768953,NA,It is big relative to other,NA,1.12,NA,NA,NA,congruent,custom_main_text1,big,Your friend says: <br/><b>That's a big redwood.</b>
2320,What do you think your friend is saying it is small relative to?,NA,images/pug.png,images/dog-parade-basic2.png,35,NA,NA,critical,NA,No,0,dogs2,Patricia,NA,NA,yes,Your friend goes ahead of you. You see your friend in the distance:,NA,pred,prize-winner,pug,50,animal,I love this work,NA,NA,higher_degree,small,NA,English,male,42045,NA,You and your friend are at a pet show and you see the following:,2,1607555768953,NA,It is small relative to other,NA,1.12,NA,NA,NA,congruent,custom_main_text1,small,Your friend says: <br/><b>That prize-winner is a small pug.</b>
2320,What do you think your friend is saying it is small relative to?,NA,images/bonsai_stick.png,images/tree-parade-basic.png,35,NA,NA,critical,NA,No,0,trees,Patricia,NA,NA,yes,Your friend goes ahead of you. You see your friend in the distance:,NA,subj,landmark,bonsai,50,bonsai,I love this work,NA,NA,higher_degree,small,NA,English,male,28434,NA,You and your friend walk to your friend's cabin in a park for the first time. You want to memorize the path and you see the following:,3,1607555768953,NA,It is small relative to other,NA,1.12,NA,NA,NA,congruent,custom_main_text1,small,Your friend says: <br/><b>That small bonsai is a landmark.</b>
2320,What do you think your friend is saying it is big relative to?,NA,images/great-dane_filler.png,images/dog-parade-basic2_filler.png,35,NA,NA,filler,NA,No,0,dogs2,Patricia,NA,NA,yes,Your friend goes ahead of you. You see your friend in the distance:,NA,subj,prize-winner,Great Dane,50,animal,I love this work,NA,NA,higher_degree,big,NA,English,male,58893,NA,You and your friend see the following:,4,1607555768953,NA,It is big relative to other,NA,1.12,NA,NA,NA,congruent,custom_main_text1,big,Your friend says: <br/><b>That Great Dane is big.</b>
2320,NA,sunflower,NA,NA,35,warmup/dandelion2.png,sunflower,NA,This is a,No,0,flowers,Patricia,NA,dandelion,yes,Please label the pictures below.,NA,NA,NA,NA,50,NA,I love this work,warmup/sunflower2.png,Flower,higher_degree,NA,NA,English,male,NA,flowers,NA,1,1607555768953,1,NA,This is a,1.12,These are both,dandelion,NA,NA,warmup2,NA,NA
2320,NA,eagle,NA,NA,35,warmup/hummingbird2.png,eagle,NA,This is a,No,0,birds,Patricia,NA,hummingbird,yes,Please label the pictures below.,NA,NA,NA,NA,50,NA,I love this work,warmup/eagle2.png,Bird,higher_degree,NA,NA,English,male,NA,birds,NA,2,1607555768953,1,NA,This is an,1.12,These are both,hummingbird,NA,NA,warmup2,NA,NA
2320,What do you think your friend is saying it is small relative to?,NA,images/hummingbird_filler.png,images/bird-parade-basic_filler.png,35,NA,NA,filler,NA,No,0,birds,Patricia,NA,NA,yes,Your friend goes ahead of you. You see your friend in the distance:,NA,pred,rescue,hummingbird,50,eagle,I love this work,NA,NA,higher_degree,small,NA,English,male,13207,NA,You and your friend see the following:,1,1607555768953,NA,It is small relative to other,NA,1.12,NA,NA,NA,congruent,custom_main_text2,small,Your friend says: <br/><b>That's a small hummingbird.</b>
2320,What do you think your friend is saying it is big relative to?,NA,images/eagle.png,images/bird-parade-basic.png,35,NA,NA,critical,NA,No,0,birds,Patricia,NA,NA,yes,Your friend goes ahead of you. You see your friend in the distance:,NA,subj,rescue,eagle,50,crow,I love this work,NA,NA,higher_degree,big,NA,English,male,10141,NA,You visit your friend who works at an animal shelter and you see the following:,2,1607555768953,NA,It is big relative to other,NA,1.12,NA,NA,NA,congruent,custom_main_text2,big,Your friend says: <br/><b>That big eagle is a rescue.</b>
2320,What do you think your friend is saying it is big relative to?,NA,images/sunflower.png,images/flower-parade-basic.png,35,NA,NA,critical,NA,No,0,flowers,Patricia,NA,NA,yes,Your friend goes ahead of you. You see your friend in the distance:,NA,pred,gift,sunflower,50,sunflower,I love this work,NA,NA,higher_degree,big,NA,English,male,286026,NA,You and your friend are at a garden store and you see the following:,3,1607555768953,NA,It is big relative to other,NA,1.12,NA,NA,NA,congruent,custom_main_text2,big,Your friend says: <br/><b>That gift is a big sunflower.</b>
2320,What do you think your friend is saying it is small relative to?,NA,images/dandelion_filler.png,images/flower-parade-basic_filler.png,35,NA,NA,filler,NA,No,0,flowers,Patricia,NA,NA,yes,Your friend goes ahead of you. You see your friend in the distance:,NA,subj,gift,dandelion,50,dandelion,I love this work,NA,NA,higher_degree,small,NA,English,male,15867,NA,You and your friend see the following:,4,1607555768953,NA,It is small relative to other,NA,1.12,NA,NA,NA,congruent,custom_main_text2,small,Your friend says: <br/><b>That dandelion is small.</b>
2319,NA,Chihuahua,NA,NA,35,warmup/doberman2.png,chihuahua,NA,This is a,No,2,dogs1,jennifer,NA,doberman,yes,Please label the pictures below.,NA,NA,NA,NA,23,NA,NA,warmup/chihuahua2.png,dogs,graduated_high_school,NA,NA,"English, Spanish",female,NA,dogs,NA,1,1607552949549,1,NA,This is a,1.25,These are both,Doberman,NA,NA,warmup1,NA,NA
2319,NA,stripmall,NA,NA,35,warmup/skyscraper2.png,stripmall,NA,This is a,No,2,buildings,jennifer,NA,skyscraper,yes,Please label the pictures below.,NA,NA,NA,NA,23,NA,NA,warmup/stripmall2.png,buildings,graduated_high_school,NA,NA,"English, Spanish",female,NA,buildings,NA,2,1607552949549,1,NA,This is a,1.25,These are both,skyscraper,NA,NA,warmup1,NA,NA
2319,<i>What do you think Speaker A meant? </i>,NA,NA,NA,35,NA,NA,NA,NA,No,2,NA,jennifer,1,NA,yes,NA,"<b> Speaker A: ""The Empire State Building is tall.""</b>",NA,NA,NA,23,monuments,NA,NA,NA,graduated_high_school,NA,comp_class_warmup,"English, Spanish",female,NA,NA,In the main trials you will be asked to rephrase something a person said. The utterance will contain a word that is <i>relative</i> and your task is to figure out what it is relative to. <br /> <br /> For example: <br />,1,1607552949549,1,The Empire State Building is tall relative to other,NA,1.25,NA,NA,"buildings, skyscrapers, houses, constructions (choose one)",NA,comp_class_warmup,NA,NA
2319,<i>What do you think Speaker A meant? </i>,NA,NA,NA,35,NA,NA,NA,NA,No,2,NA,jennifer,1,NA,yes,NA,"<b> Speaker A: ""The Empire State Building is tall.""</b>",NA,NA,NA,23,buildings,NA,NA,NA,graduated_high_school,NA,comp_class_warmup,"English, Spanish",female,NA,NA,In the main trials you will be asked to rephrase something a person said. The utterance will contain a word that is <i>relative</i> and your task is to figure out what it is relative to. <br /> <br /> For example: <br />,1,1607552949549,2,The Empire State Building is tall relative to other,NA,1.25,NA,NA,"buildings, skyscrapers, houses, constructions (choose one)",NA,comp_class_warmup,NA,NA
2319,What do you think your friend is saying it is small relative to?,NA,images/chihuahua_filler.png,images/dog-parade-basic_filler.png,35,NA,NA,filler,NA,No,2,dogs1,jennifer,NA,NA,yes,Your friend goes ahead of you. You see your friend in the distance:,NA,subj,service-animal,chihuahua,23,dogs,NA,NA,NA,graduated_high_school,small,NA,"English, Spanish",female,30016,NA,You and your friend see the following:,1,1607552949549,NA,It is small relative to other,NA,1.25,NA,NA,NA,congruent,custom_main_text1,small,Your friend says: <br/><b>That chihuahua is small.</b>
2319,What do you think your friend is saying it is small relative to?,NA,images/stripmall-landmark-filler.png,images/buildings-parade-basic_filler.png,35,NA,NA,filler,NA,No,2,buildings,jennifer,NA,NA,yes,Your friend goes ahead of you. You see your friend in the distance:,NA,pred,landmark,stripmall,23,stripmalls,NA,NA,NA,graduated_high_school,small,NA,"English, Spanish",female,32880,NA,You and your friend see the following:,2,1607552949549,NA,It is small relative to other,NA,1.25,NA,NA,NA,congruent,custom_main_text1,small,Your friend says: <br/><b>That's a small stripmall.</b>
2319,What do you think your friend is saying it is big relative to?,NA,images/skyscraper-landmark.png,images/buildings-parade-basic.png,35,NA,NA,critical,NA,No,2,buildings,jennifer,NA,NA,yes,Your friend goes ahead of you. You see your friend in the distance:,NA,subj,landmark,skyscraper,23,buildings,NA,NA,NA,graduated_high_school,big,NA,"English, Spanish",female,306505,NA,You visit your friend who lives in another city. You take a walk and you see the following:,3,1607552949549,NA,It is big relative to other,NA,1.25,NA,NA,NA,congruent,custom_main_text1,big,Your friend says: <br/><b>That big skyscraper is a landmark.</b>
2319,What do you think your friend is saying it is big relative to?,NA,images/doberman.png,images/dog-parade-basic.png,35,NA,NA,critical,NA,No,2,dogs1,jennifer,NA,NA,yes,Your friend goes ahead of you. You see your friend in the distance:,NA,pred,service-animal,doberman,23,dobermans,NA,NA,NA,graduated_high_school,big,NA,"English, Spanish",female,22551,NA,You and your friend are at an animal training ground and you see the following:,4,1607552949549,NA,It is big relative to other,NA,1.25,NA,NA,NA,congruent,custom_main_text1,big,Your friend says: <br/><b>That service-animal is a big doberman.</b>
2319,NA,dandelion,NA,NA,35,warmup/sunflower2.png,dandelion,NA,This is a,No,2,flowers,jennifer,NA,sunflower,yes,Please label the pictures below.,NA,NA,NA,NA,23,NA,NA,warmup/dandelion2.png,plants,graduated_high_school,NA,NA,"English, Spanish",female,NA,flowers,NA,1,1607552949549,1,NA,This is a,1.25,These are both,sunflower,NA,NA,warmup2,NA,NA
2319,NA,dandelion,NA,NA,35,warmup/sunflower2.png,dandelion,NA,This is a,No,2,flowers,jennifer,NA,sunflower,yes,Please label the pictures below.,NA,NA,NA,NA,23,NA,NA,warmup/dandelion2.png,flowers,graduated_high_school,NA,NA,"English, Spanish",female,NA,flowers,NA,1,1607552949549,2,NA,This is a,1.25,These are both,sunflower,NA,NA,warmup2,NA,NA
2319,NA,pug,NA,NA,35,warmup/great-dane2.png,pug,NA,This is a,No,2,dogs2,jennifer,NA,great dane,yes,Please label the pictures below.,NA,NA,NA,NA,23,NA,NA,warmup/pug2.png,dogs,graduated_high_school,NA,NA,"English, Spanish",female,NA,dogs,NA,2,1607552949549,1,NA,This is a,1.25,These are both,great dane,NA,NA,warmup2,NA,NA
2319,What do you think your friend is saying it is big relative to?,NA,images/sunflower_filler.png,images/flower-parade-basic_filler.png,35,NA,NA,filler,NA,No,2,flowers,jennifer,NA,NA,yes,Your friend goes ahead of you. You see your friend in the distance:,NA,subj,gift,sunflower,23,flowers,NA,NA,NA,graduated_high_school,big,NA,"English, Spanish",female,13344,NA,You and your friend see the following:,1,1607552949549,NA,It is big relative to other,NA,1.25,NA,NA,NA,congruent,custom_main_text2,big,Your friend says: <br/><b>That sunflower is big.</b>
2319,What do you think your friend is saying it is small relative to?,NA,images/pug.png,images/dog-parade-basic2.png,35,NA,NA,critical,NA,No,2,dogs2,jennifer,NA,NA,yes,Your friend goes ahead of you. You see your friend in the distance:,NA,subj,prize-winner,pug,23,pugs,NA,NA,NA,graduated_high_school,small,NA,"English, Spanish",female,22672,NA,You and your friend are at a pet show and you see the following:,2,1607552949549,NA,It is small relative to other,NA,1.25,NA,NA,NA,congruent,custom_main_text2,small,Your friend says: <br/><b>That small pug is a prize-winner.</b>
2319,What do you think your friend is saying it is small relative to?,NA,images/dandelion.png,images/flower-parade-basic.png,35,NA,NA,critical,NA,No,2,flowers,jennifer,NA,NA,yes,Your friend goes ahead of you. You see your friend in the distance:,NA,pred,gift,dandelion,23,gifts,NA,NA,NA,graduated_high_school,small,NA,"English, Spanish",female,23840,NA,You and your friend are at a garden store and you see the following:,3,1607552949549,NA,It is small relative to other,NA,1.25,NA,NA,NA,congruent,custom_main_text2,small,Your friend says: <br/><b>That gift is a small dandelion.</b>
2319,What do you think your friend is saying it is big relative to?,NA,images/great-dane_filler.png,images/dog-parade-basic2_filler.png,35,NA,NA,filler,NA,No,2,dogs2,jennifer,NA,NA,yes,Your friend goes ahead of you. You see your friend in the distance:,NA,pred,prize-winner,Great Dane,23,dogs,NA,NA,NA,graduated_high_school,big,NA,"English, Spanish",female,13207,NA,You and your friend see the following:,4,1607552949549,NA,It is big relative to other,NA,1.25,NA,NA,NA,congruent,custom_main_text2,big,Your friend says: <br/><b>That's a big Great Dane.</b>
2318,NA,doberman,NA,NA,35,warmup/chihuahua2.png,doberman,NA,This is a,No.,2,dogs1,jessica,NA,chihuahua,yes,Please label the pictures below.,NA,NA,NA,NA,77,NA,Interesting.,warmup/doberman2.png,dogs,some_college,NA,NA,English,female,NA,dogs,NA,1,1607552964648,1,NA,This is a,1.15,These are both,chihuahua,NA,NA,warmup1,NA,NA
2318,NA,sunflower,NA,NA,35,warmup/dandelion2.png,sunflower,NA,This is a,No.,2,flowers,jessica,NA,dandelion,yes,Please label the pictures below.,NA,NA,NA,NA,77,NA,Interesting.,warmup/sunflower2.png,flowers,some_college,NA,NA,English,female,NA,flowers,NA,2,1607552964648,1,NA,This is a,1.15,These are both,dandelion,NA,NA,warmup1,NA,NA
2318,<i>What do you think Speaker A meant? </i>,NA,NA,NA,35,NA,NA,NA,NA,No.,2,NA,jessica,1,NA,yes,NA,"<b> Speaker A: ""The Empire State Building is tall.""</b>",NA,NA,NA,77,buildings,Interesting.,NA,NA,some_college,NA,comp_class_warmup,English,female,NA,NA,In the main trials you will be asked to rephrase something a person said. The utterance will contain a word that is <i>relative</i> and your task is to figure out what it is relative to. <br /> <br /> For example: <br />,1,1607552964648,1,The Empire State Building is tall relative to other,NA,1.15,NA,NA,"buildings, skyscrapers, houses, constructions (choose one)",NA,comp_class_warmup,NA,NA
2318,What do you think your friend is saying it is small relative to?,NA,images/chihuahua_filler.png,images/dog-parade-basic_filler.png,35,NA,NA,filler,NA,No.,2,dogs1,jessica,NA,NA,yes,Your friend goes ahead of you. You see your friend in the distance:,NA,pred,rescue,chihuahua,77,chihuahuas,Interesting.,NA,NA,some_college,small,NA,English,female,48275,NA,You and your friend see the following:,1,1607552964648,NA,It is small relative to other,NA,1.15,NA,NA,NA,congruent,custom_main_text1,small,Your friend says: <br/><b>That's a small chihuahua.</b>
2318,What do you think your friend is saying it is big relative to?,NA,images/doberman-rescue.png,images/dog-parade-basic-rescue.png,35,NA,NA,critical,NA,No.,2,dogs1,jessica,NA,NA,yes,Your friend goes ahead of you. You see your friend in the distance:,NA,subj,rescue,doberman,77,dobermans,Interesting.,NA,NA,some_college,big,NA,English,female,29204,NA,You visit your friend who works at an animal shelter and you see the following:,2,1607552964648,NA,It is big relative to other,NA,1.15,NA,NA,NA,congruent,custom_main_text1,big,Your friend says: <br/><b>That big doberman is a rescue.</b>
2318,What do you think your friend is saying it is big relative to?,NA,images/sunflower_filler.png,images/flower-parade-basic_filler.png,35,NA,NA,filler,NA,No.,2,flowers,jessica,NA,NA,yes,Your friend goes ahead of you. You see your friend in the distance:,NA,subj,gift,sunflower,77,sunflowers,Interesting.,NA,NA,some_college,big,NA,English,female,17376,NA,You and your friend see the following:,3,1607552964648,NA,It is big relative to other,NA,1.15,NA,NA,NA,congruent,custom_main_text1,big,Your friend says: <br/><b>That sunflower is big.</b>
2318,What do you think your friend is saying it is small relative to?,NA,images/dandelion.png,images/flower-parade-basic.png,35,NA,NA,critical,NA,No.,2,flowers,jessica,NA,NA,yes,Your friend goes ahead of you. You see your friend in the distance:,NA,pred,gift,dandelion,77,gifts,Interesting.,NA,NA,some_college,small,NA,English,female,32378,NA,You and your friend are at a garden store and you see the following:,4,1607552964648,NA,It is small relative to other,NA,1.15,NA,NA,NA,congruent,custom_main_text1,small,Your friend says: <br/><b>That gift is a small dandelion.</b>
2318,NA,bonsai,NA,NA,35,warmup/redwood2.png,bonsai,NA,This is a,No.,2,trees,jessica,NA,redwood or sequoia (choose one),yes,Please label the pictures below.,NA,NA,NA,NA,77,NA,Interesting.,warmup/bonsai2.png,trees,some_college,NA,NA,English,female,NA,trees,NA,1,1607552964648,1,NA,This is a,1.15,These are both,redwood,NA,NA,warmup2,NA,NA
2318,NA,pug,NA,NA,35,warmup/great-dane2.png,pug,NA,This is a,No.,2,dogs2,jessica,NA,great dane,yes,Please label the pictures below.,NA,NA,NA,NA,77,NA,Interesting.,warmup/pug2.png,dogs,some_college,NA,NA,English,female,NA,dogs,NA,2,1607552964648,1,NA,This is a,1.15,These are both,great dane,NA,NA,warmup2,NA,NA
2318,What do you think your friend is saying it is big relative to?,NA,images/redwood_filler.png,images/tree-parade-basic_filler.png,35,NA,NA,filler,NA,No.,2,trees,jessica,NA,NA,yes,Your friend goes ahead of you. You see your friend in the distance:,NA,pred,landmark,redwood,77,redwood trees,Interesting.,NA,NA,some_college,big,NA,English,female,22136,NA,You and your friend see the following:,1,1607552964648,NA,It is big relative to other,NA,1.15,NA,NA,NA,congruent,custom_main_text2,big,Your friend says: <br/><b>That's a big redwood.</b>
2318,What do you think your friend is saying it is small relative to?,NA,images/bonsai_stick.png,images/tree-parade-basic.png,35,NA,NA,critical,NA,No.,2,trees,jessica,NA,NA,yes,Your friend goes ahead of you. You see your friend in the distance:,NA,subj,landmark,bonsai,77,trees,Interesting.,NA,NA,some_college,small,NA,English,female,34344,NA,You and your friend walk to your friend's cabin in a park for the first time. You want to memorize the path and you see the following:,2,1607552964648,NA,It is small relative to other,NA,1.15,NA,NA,NA,congruent,custom_main_text2,small,Your friend says: <br/><b>That small bonsai is a landmark.</b>
2318,What do you think your friend is saying it is big relative to?,NA,images/great-dane.png,images/dog-parade-basic2.png,35,NA,NA,critical,NA,No.,2,dogs2,jessica,NA,NA,yes,Your friend goes ahead of you. You see your friend in the distance:,NA,pred,prize-winner,Great Dane,77,great danes,Interesting.,NA,NA,some_college,big,NA,English,female,46326,NA,You and your friend are at a pet show and you see the following:,3,1607552964648,NA,It is big relative to other,NA,1.15,NA,NA,NA,congruent,custom_main_text2,big,Your friend says: <br/><b>That prize-winner is a big Great Dane.</b>
2318,What do you think your friend is saying it is small relative to?,NA,images/pug_filler.png,images/dog-parade-basic2_filler.png,35,NA,NA,filler,NA,No.,2,dogs2,jessica,NA,NA,yes,Your friend goes ahead of you. You see your friend in the distance:,NA,subj,prize-winner,pug,77,pugs,Interesting.,NA,NA,some_college,small,NA,English,female,28303,NA,You and your friend see the following:,4,1607552964648,NA,It is small relative to other,NA,1.15,NA,NA,NA,congruent,custom_main_text2,small,Your friend says: <br/><b>That pug is small.</b>
2317,NA,tuna,NA,NA,35,warmup/clownfish2.png,tuna,NA,This is a,no,0,fish,jessica,NA,clownfish,yes,Please label the pictures below.,NA,NA,NA,NA,52,NA,silly,warmup/tuna2.png,fish,some_college,NA,NA,english,female,NA,fish,NA,1,1607552325791,1,NA,This is a,1,These are both,clown,NA,NA,warmup1,NA,NA
2317,NA,tuna fish,NA,NA,35,warmup/clownfish2.png,tuna,NA,This is a,no,0,fish,jessica,NA,clownfish,yes,Please label the pictures below.,NA,NA,NA,NA,52,NA,silly,warmup/tuna2.png,fish,some_college,NA,NA,english,female,NA,fish,NA,1,1607552325791,2,NA,This is a,1,These are both,clown fish,NA,NA,warmup1,NA,NA
2317,NA,tuna fish,NA,NA,35,warmup/clownfish2.png,tuna,NA,This is a,no,0,fish,jessica,NA,clownfish,yes,Please label the pictures below.,NA,NA,NA,NA,52,NA,silly,warmup/tuna2.png,fish,some_college,NA,NA,english,female,NA,fish,NA,1,1607552325791,3,NA,This is a,1,These are both,clown fish,NA,NA,warmup1,NA,NA
2317,NA,tuna fish,NA,NA,35,warmup/clownfish2.png,tuna,NA,This is a,no,0,fish,jessica,NA,clownfish,yes,Please label the pictures below.,NA,NA,NA,NA,52,NA,silly,warmup/tuna2.png,fish,some_college,NA,NA,english,female,NA,fish,NA,1,1607552325791,4,NA,This is a,1,These are both,clown fish,NA,NA,warmup1,NA,NA
2317,NA,tuna fish,NA,NA,35,warmup/clownfish2.png,tuna,NA,This is a,no,0,fish,jessica,NA,clownfish,yes,Please label the pictures below.,NA,NA,NA,NA,52,NA,silly,warmup/tuna2.png,fish,some_college,NA,NA,english,female,NA,fish,NA,1,1607552325791,5,NA,This is a,1,These are both,clown fish,NA,NA,warmup1,NA,NA
2317,NA,tuna,NA,NA,35,warmup/clownfish2.png,tuna,NA,This is a,no,0,fish,jessica,NA,clownfish,yes,Please label the pictures below.,NA,NA,NA,NA,52,NA,silly,warmup/tuna2.png,fish,some_college,NA,NA,english,female,NA,fish,NA,1,1607552325791,6,NA,This is a,1,These are both,clownfish,NA,NA,warmup1,NA,NA
2317,NA,bonsai,NA,NA,35,warmup/redwood2.png,bonsai,NA,This is a,no,0,trees,jessica,NA,redwood or sequoia (choose one),yes,Please label the pictures below.,NA,NA,NA,NA,52,NA,silly,warmup/bonsai2.png,trees,some_college,NA,NA,english,female,NA,trees,NA,2,1607552325791,1,NA,This is a,1,These are both,redwood,NA,NA,warmup1,NA,NA
2317,<i>What do you think Speaker A meant? </i>,NA,NA,NA,35,NA,NA,NA,NA,no,0,NA,jessica,1,NA,yes,NA,"<b> Speaker A: ""The Empire State Building is tall.""</b>",NA,NA,NA,52,buildings,silly,NA,NA,some_college,NA,comp_class_warmup,english,female,NA,NA,In the main trials you will be asked to rephrase something a person said. The utterance will contain a word that is <i>relative</i> and your task is to figure out what it is relative to. <br /> <br /> For example: <br />,1,1607552325791,1,The Empire State Building is tall relative to other,NA,1,NA,NA,"buildings, skyscrapers, houses, constructions (choose one)",NA,comp_class_warmup,NA,NA
2317,What do you think your friend is saying it is big relative to?,NA,images/tuna_filler.png,images/fish-parade-basic_filler.png,35,NA,NA,filler,NA,no,0,fish,jessica,NA,NA,yes,Your friend goes ahead of you. You see your friend in the distance:,NA,pred,rescue,tuna,52,fish,silly,NA,NA,some_college,big,NA,english,female,66156,NA,You and your friend see the following:,1,1607552325791,NA,It is big relative to other,NA,1,NA,NA,NA,congruent,custom_main_text1,big,Your friend says: <br/><b>That's a big tuna.</b>
2317,What do you think your friend is saying it is small relative to?,NA,images/clownfish_net.png,images/fish-parade-basic.png,35,NA,NA,critical,NA,no,0,fish,jessica,NA,NA,yes,Your friend goes ahead of you. You see your friend in the distance:,NA,subj,rescue,clownfish,52,fish,silly,NA,NA,some_college,small,NA,english,female,121382,NA,You visit your friend who works as a marine biologist and you see the following:,2,1607552325791,NA,It is small relative to other,NA,1,NA,NA,NA,congruent,custom_main_text1,small,Your friend says: <br/><b>That small clownfish is a rescue.</b>
2317,What do you think your friend is saying it is small relative to?,NA,images/bonsai_stick.png,images/tree-parade-basic.png,35,NA,NA,critical,NA,no,0,trees,jessica,NA,NA,yes,Your friend goes ahead of you. You see your friend in the distance:,NA,pred,landmark,bonsai,52,landmarks,silly,NA,NA,some_college,small,NA,english,female,58185,NA,You and your friend walk to your friend's cabin in a park for the first time. You want to memorize the path and you see the following:,3,1607552325791,NA,It is small relative to other,NA,1,NA,NA,NA,congruent,custom_main_text1,small,Your friend says: <br/><b>That landmark is a small bonsai.</b>
2317,What do you think your friend is saying it is big relative to?,NA,images/redwood_filler.png,images/tree-parade-basic_filler.png,35,NA,NA,filler,NA,no,0,trees,jessica,NA,NA,yes,Your friend goes ahead of you. You see your friend in the distance:,NA,subj,landmark,redwood,52,trees,silly,NA,NA,some_college,big,NA,english,female,43665,NA,You and your friend see the following:,4,1607552325791,NA,It is big relative to other,NA,1,NA,NA,NA,congruent,custom_main_text1,big,Your friend says: <br/><b>That redwood is big.</b>
2317,NA,dandelion,NA,NA,35,warmup/sunflower2.png,dandelion,NA,This is a,no,0,flowers,jessica,NA,sunflower,yes,Please label the pictures below.,NA,NA,NA,NA,52,NA,silly,warmup/dandelion2.png,flowers,some_college,NA,NA,english,female,NA,flowers,NA,1,1607552325791,1,NA,This is a,1,These are both,sunflower,NA,NA,warmup2,NA,NA
2317,NA,pug,NA,NA,35,warmup/great-dane2.png,pug,NA,This is a,no,0,dogs2,jessica,NA,great dane,yes,Please label the pictures below.,NA,NA,NA,NA,52,NA,silly,warmup/pug2.png,dogs,some_college,NA,NA,english,female,NA,dogs,NA,2,1607552325791,1,NA,This is a,1,These are both,great dane,NA,NA,warmup2,NA,NA
2317,What do you think your friend is saying it is small relative to?,NA,images/pug_filler.png,images/dog-parade-basic2_filler.png,35,NA,NA,filler,NA,no,0,dogs2,jessica,NA,NA,yes,Your friend goes ahead of you. You see your friend in the distance:,NA,pred,prize-winner,pug,52,pugs,silly,NA,NA,some_college,small,NA,english,female,155556,NA,You and your friend see the following:,1,1607552325791,NA,It is small relative to other,NA,1,NA,NA,NA,congruent,custom_main_text2,small,Your friend says: <br/><b>That's a small pug.</b>
2317,What do you think your friend is saying it is small relative to?,NA,images/dandelion_filler.png,images/flower-parade-basic_filler.png,35,NA,NA,filler,NA,no,0,flowers,jessica,NA,NA,yes,Your friend goes ahead of you. You see your friend in the distance:,NA,subj,gift,dandelion,52,flowers,silly,NA,NA,some_college,small,NA,english,female,38625,NA,You and your friend see the following:,2,1607552325791,NA,It is small relative to other,NA,1,NA,NA,NA,congruent,custom_main_text2,small,Your friend says: <br/><b>That dandelion is small.</b>
2317,What do you think your friend is saying it is big relative to?,NA,images/great-dane.png,images/dog-parade-basic2.png,35,NA,NA,critical,NA,no,0,dogs2,jessica,NA,NA,yes,Your friend goes ahead of you. You see your friend in the distance:,NA,subj,prize-winner,Great Dane,52,dogs,silly,NA,NA,some_college,big,NA,english,female,35242,NA,You and your friend are at a pet show and you see the following:,3,1607552325791,NA,It is big relative to other,NA,1,NA,NA,NA,congruent,custom_main_text2,big,Your friend says: <br/><b>That big Great Dane is a prize-winner.</b>
2317,What do you think your friend is saying it is big relative to?,NA,images/sunflower.png,images/flower-parade-basic.png,35,NA,NA,critical,NA,no,0,flowers,jessica,NA,NA,yes,Your friend goes ahead of you. You see your friend in the distance:,NA,pred,gift,sunflower,52,flowers,silly,NA,NA,some_college,big,NA,english,female,28195,NA,You and your friend are at a garden store and you see the following:,4,1607552325791,NA,It is big relative to other,NA,1,NA,NA,NA,congruent,custom_main_text2,big,Your friend says: <br/><b>That gift is a big sunflower.</b>
2316,NA,Tuna,NA,NA,35,warmup/clownfish2.png,tuna,NA,This is a,no,2,fish,mary,NA,clownfish,yes,Please label the pictures below.,NA,NA,NA,NA,31,NA,NA,warmup/tuna2.png,fish,graduated_college,NA,NA,english,female,NA,fish,NA,1,1607553203628,1,NA,This is a,1.5,These are both,Clownfish,NA,NA,warmup1,NA,NA
2316,NA,bonsai,NA,NA,35,warmup/redwood2.png,bonsai,NA,This is a,no,2,trees,mary,NA,redwood or sequoia (choose one),yes,Please label the pictures below.,NA,NA,NA,NA,31,NA,NA,warmup/bonsai2.png,trees,graduated_college,NA,NA,english,female,NA,trees,NA,2,1607553203628,1,NA,This is a,1.5,These are both,redwood,NA,NA,warmup1,NA,NA
2316,<i>What do you think Speaker A meant? </i>,NA,NA,NA,35,NA,NA,NA,NA,no,2,NA,mary,1,NA,yes,NA,"<b> Speaker A: ""The Empire State Building is tall.""</b>",NA,NA,NA,31,buildings,NA,NA,NA,graduated_college,NA,comp_class_warmup,english,female,NA,NA,In the main trials you will be asked to rephrase something a person said. The utterance will contain a word that is <i>relative</i> and your task is to figure out what it is relative to. <br /> <br /> For example: <br />,1,1607553203628,1,The Empire State Building is tall relative to other,NA,1.5,NA,NA,"buildings, skyscrapers, houses, constructions (choose one)",NA,comp_class_warmup,NA,NA
2316,What do you think your friend is saying it is small relative to?,NA,images/clownfish_filler.png,images/fish-parade-basic_filler.png,35,NA,NA,filler,NA,no,2,fish,mary,NA,NA,yes,Your friend goes ahead of you. You see your friend in the distance:,NA,subj,rescue,clownfish,31,fish,NA,NA,NA,graduated_college,small,NA,english,female,14050,NA,You and your friend see the following:,1,1607553203628,NA,It is small relative to other,NA,1.5,NA,NA,NA,congruent,custom_main_text1,small,Your friend says: <br/><b>That clownfish is small.</b>
2316,What do you think your friend is saying it is big relative to?,NA,images/tuna_net.png,images/fish-parade-basic.png,35,NA,NA,critical,NA,no,2,fish,mary,NA,NA,yes,Your friend goes ahead of you. You see your friend in the distance:,NA,pred,rescue,tuna,31,fish,NA,NA,NA,graduated_college,big,NA,english,female,15467,NA,You visit your friend who works as a marine biologist and you see the following:,2,1607553203628,NA,It is big relative to other,NA,1.5,NA,NA,NA,congruent,custom_main_text1,big,Your friend says: <br/><b>That rescue is a big tuna.</b>
2316,What do you think your friend is saying it is big relative to?,NA,images/redwood_filler.png,images/tree-parade-basic_filler.png,35,NA,NA,filler,NA,no,2,trees,mary,NA,NA,yes,Your friend goes ahead of you. You see your friend in the distance:,NA,pred,landmark,redwood,31,trees,NA,NA,NA,graduated_college,big,NA,english,female,5276,NA,You and your friend see the following:,3,1607553203628,NA,It is big relative to other,NA,1.5,NA,NA,NA,congruent,custom_main_text1,big,Your friend says: <br/><b>That's a big redwood.</b>
2316,What do you think your friend is saying it is small relative to?,NA,images/bonsai_stick.png,images/tree-parade-basic.png,35,NA,NA,critical,NA,no,2,trees,mary,NA,NA,yes,Your friend goes ahead of you. You see your friend in the distance:,NA,subj,landmark,bonsai,31,trees,NA,NA,NA,graduated_college,small,NA,english,female,7639,NA,You and your friend walk to your friend's cabin in a park for the first time. You want to memorize the path and you see the following:,4,1607553203628,NA,It is small relative to other,NA,1.5,NA,NA,NA,congruent,custom_main_text1,small,Your friend says: <br/><b>That small bonsai is a landmark.</b>
2316,NA,pug,NA,NA,35,warmup/great-dane2.png,pug,NA,This is a,no,2,dogs2,mary,NA,great dane,yes,Please label the pictures below.,NA,NA,NA,NA,31,NA,NA,warmup/pug2.png,dogs,graduated_college,NA,NA,english,female,NA,dogs,NA,1,1607553203628,1,NA,This is a,1.5,These are both,great dane,NA,NA,warmup2,NA,NA
2316,NA,chihuahua,NA,NA,35,warmup/doberman2.png,chihuahua,NA,This is a,no,2,dogs1,mary,NA,doberman,yes,Please label the pictures below.,NA,NA,NA,NA,31,NA,NA,warmup/chihuahua2.png,dogs,graduated_college,NA,NA,english,female,NA,dogs,NA,2,1607553203628,1,NA,This is a,1.5,These are both,doberman,NA,NA,warmup2,NA,NA
2316,What do you think your friend is saying it is small relative to?,NA,images/pug_filler.png,images/dog-parade-basic2_filler.png,35,NA,NA,filler,NA,no,2,dogs2,mary,NA,NA,yes,Your friend goes ahead of you. You see your friend in the distance:,NA,pred,gift,pug,31,dogs,NA,NA,NA,graduated_college,small,NA,english,female,11115,NA,You and your friend see the following:,1,1607553203628,NA,It is small relative to other,NA,1.5,NA,NA,NA,congruent,custom_main_text2,small,Your friend says: <br/><b>That's a small pug.</b>
2316,What do you think your friend is saying it is big relative to?,NA,images/great-dane-gift.png,images/dog-parade-basic2-gift.png,35,NA,NA,critical,NA,no,2,dogs2,mary,NA,NA,yes,Your friend goes ahead of you. You see your friend in the distance:,NA,subj,gift,Great Dane,31,dogs,NA,NA,NA,graduated_college,big,NA,english,female,23265,NA,You and your friend are at a pet store and you see the following:,2,1607553203628,NA,It is big relative to other,NA,1.5,NA,NA,NA,congruent,custom_main_text2,big,Your friend says: <br/><b>That big Great Dane is a gift.</b>
2316,What do you think your friend is saying it is big relative to?,NA,images/doberman_filler.png,images/dog-parade-basic_filler.png,35,NA,NA,filler,NA,no,2,dogs1,mary,NA,NA,yes,Your friend goes ahead of you. You see your friend in the distance:,NA,subj,service-animal,doberman,31,dogs,NA,NA,NA,graduated_college,big,NA,english,female,4420,NA,You and your friend see the following:,3,1607553203628,NA,It is big relative to other,NA,1.5,NA,NA,NA,congruent,custom_main_text2,big,Your friend says: <br/><b>That doberman is big.</b>
2316,What do you think your friend is saying it is small relative to?,NA,images/chihuahua.png,images/dog-parade-basic.png,35,NA,NA,critical,NA,no,2,dogs1,mary,NA,NA,yes,Your friend goes ahead of you. You see your friend in the distance:,NA,pred,service-animal,chihuahua,31,dogs,NA,NA,NA,graduated_college,small,NA,english,female,9552,NA,You and your friend are at an animal training ground and you see the following:,4,1607553203628,NA,It is small relative to other,NA,1.5,NA,NA,NA,congruent,custom_main_text2,small,Your friend says: <br/><b>That service-animal is a small chihuahua.</b>
2315,NA,doberman,NA,NA,35,warmup/chihuahua2.png,doberman,NA,This is a,NA,1,dogs1,linda,NA,chihuahua,yes,Please label the pictures below.,NA,NA,NA,NA,21,NA,NA,warmup/doberman2.png,dogs,some_college,NA,NA,english,male,NA,dogs,NA,1,1607552940316,1,NA,This is a,1.15,These are both,chihuahua,NA,NA,warmup1,NA,NA
2315,NA,strip mall,NA,NA,35,warmup/skyscraper2.png,stripmall,NA,This is a,NA,1,buildings,linda,NA,skyscraper,yes,Please label the pictures below.,NA,NA,NA,NA,21,NA,NA,warmup/stripmall2.png,buildings,some_college,NA,NA,english,male,NA,buildings,NA,2,1607552940316,1,NA,This is a,1.15,These are both,skyscraper,NA,NA,warmup1,NA,NA
2315,NA,stripmall,NA,NA,35,warmup/skyscraper2.png,stripmall,NA,This is a,NA,1,buildings,linda,NA,skyscraper,yes,Please label the pictures below.,NA,NA,NA,NA,21,NA,NA,warmup/stripmall2.png,buildings,some_college,NA,NA,english,male,NA,buildings,NA,2,1607552940316,2,NA,This is a,1.15,These are both,skyscraper,NA,NA,warmup1,NA,NA
2315,<i>What do you think Speaker A meant? </i>,NA,NA,NA,35,NA,NA,NA,NA,NA,1,NA,linda,1,NA,yes,NA,"<b> Speaker A: ""The Empire State Building is tall.""</b>",NA,NA,NA,21,buildings,NA,NA,NA,some_college,NA,comp_class_warmup,english,male,NA,NA,In the main trials you will be asked to rephrase something a person said. The utterance will contain a word that is <i>relative</i> and your task is to figure out what it is relative to. <br /> <br /> For example: <br />,1,1607552940316,1,The Empire State Building is tall relative to other,NA,1.15,NA,NA,"buildings, skyscrapers, houses, constructions (choose one)",NA,comp_class_warmup,NA,NA
2315,What do you think your friend is saying it is big relative to?,NA,images/skyscraper-landmark-filler.png,images/buildings-parade-basic_filler.png,35,NA,NA,filler,NA,NA,1,buildings,linda,NA,NA,yes,Your friend goes ahead of you. You see your friend in the distance:,NA,subj,landmark,skyscraper,21,buildings,NA,NA,NA,some_college,big,NA,english,male,8056,NA,You and your friend see the following:,1,1607552940316,NA,It is big relative to other,NA,1.15,NA,NA,NA,congruent,custom_main_text1,big,Your friend says: <br/><b>That skyscraper is big.</b>
2315,What do you think your friend is saying it is small relative to?,NA,images/stripmall-landmark.png,images/buildings-parade-basic.png,35,NA,NA,critical,NA,NA,1,buildings,linda,NA,NA,yes,Your friend goes ahead of you. You see your friend in the distance:,NA,pred,landmark,stripmall,21,buildings,NA,NA,NA,some_college,small,NA,english,male,18500,NA,You visit your friend who lives in another city. You take a walk and you see the following:,2,1607552940316,NA,It is small relative to other,NA,1.15,NA,NA,NA,congruent,custom_main_text1,small,Your friend says: <br/><b>That landmark is a small stripmall.</b>
2315,What do you think your friend is saying it is big relative to?,NA,images/doberman.png,images/dog-parade-basic.png,35,NA,NA,critical,NA,NA,1,dogs1,linda,NA,NA,yes,Your friend goes ahead of you. You see your friend in the distance:,NA,pred,service-animal,doberman,21,dogs,NA,NA,NA,some_college,big,NA,english,male,7255,NA,You and your friend are at an animal training ground and you see the following:,3,1607552940316,NA,It is big relative to other,NA,1.15,NA,NA,NA,congruent,custom_main_text1,big,Your friend says: <br/><b>That service-animal is a big doberman.</b>
2315,What do you think your friend is saying it is small relative to?,NA,images/chihuahua_filler.png,images/dog-parade-basic_filler.png,35,NA,NA,filler,NA,NA,1,dogs1,linda,NA,NA,yes,Your friend goes ahead of you. You see your friend in the distance:,NA,subj,service-animal,chihuahua,21,dogs,NA,NA,NA,some_college,small,NA,english,male,5691,NA,You and your friend see the following:,4,1607552940316,NA,It is small relative to other,NA,1.15,NA,NA,NA,congruent,custom_main_text1,small,Your friend says: <br/><b>That chihuahua is small.</b>
2315,NA,hummingbird,NA,NA,35,warmup/eagle2.png,hummingbird,NA,This is a,NA,1,birds,linda,NA,eagle,yes,Please label the pictures below.,NA,NA,NA,NA,21,NA,NA,warmup/hummingbird2.png,birds,some_college,NA,NA,english,male,NA,birds,NA,1,1607552940316,1,NA,This is an,1.15,These are both,eagle,NA,NA,warmup2,NA,NA
2315,NA,great dane,NA,NA,35,warmup/pug2.png,great dane,NA,This is a,NA,1,dogs2,linda,NA,pug,yes,Please label the pictures below.,NA,NA,NA,NA,21,NA,NA,warmup/great-dane2.png,dogs,some_college,NA,NA,english,male,NA,dogs,NA,2,1607552940316,1,NA,This is a,1.15,These are both,pug,NA,NA,warmup2,NA,NA
2315,What do you think your friend is saying it is big relative to?,NA,images/eagle_filler.png,images/bird-parade-basic_filler.png,35,NA,NA,filler,NA,NA,1,birds,linda,NA,NA,yes,Your friend goes ahead of you. You see your friend in the distance:,NA,pred,rescue,eagle,21,birds,NA,NA,NA,some_college,big,NA,english,male,7273,NA,You and your friend see the following:,1,1607552940316,NA,It is big relative to other,NA,1.15,NA,NA,NA,congruent,custom_main_text2,big,Your friend says: <br/><b>That's a big eagle.</b>
2315,What do you think your friend is saying it is small relative to?,NA,images/hummingbird.png,images/bird-parade-basic.png,35,NA,NA,critical,NA,NA,1,birds,linda,NA,NA,yes,Your friend goes ahead of you. You see your friend in the distance:,NA,subj,rescue,hummingbird,21,birds,NA,NA,NA,some_college,small,NA,english,male,7282,NA,You visit your friend who works at an animal shelter and you see the following:,2,1607552940316,NA,It is small relative to other,NA,1.15,NA,NA,NA,congruent,custom_main_text2,small,Your friend says: <br/><b>That small hummingbird is a rescue.</b>
2315,What do you think your friend is saying it is big relative to?,NA,images/great-dane-gift.png,images/dog-parade-basic2-gift.png,35,NA,NA,critical,NA,NA,1,dogs2,linda,NA,NA,yes,Your friend goes ahead of you. You see your friend in the distance:,NA,subj,gift,Great Dane,21,dogs,NA,NA,NA,some_college,big,NA,english,male,5514,NA,You and your friend are at a pet store and you see the following:,3,1607552940316,NA,It is big relative to other,NA,1.15,NA,NA,NA,congruent,custom_main_text2,big,Your friend says: <br/><b>That big Great Dane is a gift.</b>
2315,What do you think your friend is saying it is small relative to?,NA,images/pug_filler.png,images/dog-parade-basic2_filler.png,35,NA,NA,filler,NA,NA,1,dogs2,linda,NA,NA,yes,Your friend goes ahead of you. You see your friend in the distance:,NA,pred,gift,pug,21,fogs,NA,NA,NA,some_college,small,NA,english,male,5043,NA,You and your friend see the following:,4,1607552940316,NA,It is small relative to other,NA,1.15,NA,NA,NA,congruent,custom_main_text2,small,Your friend says: <br/><b>That's a small pug.</b>
2314,NA,strip mall,NA,NA,35,warmup/skyscraper2.png,stripmall,NA,This is a,I had to switch browsers to get it to work.,1,buildings,margaret,NA,skyscraper,yes,Please label the pictures below.,NA,NA,NA,NA,51,NA,NA,warmup/stripmall2.png,buildings,graduated_college,NA,NA,English,female,NA,buildings,NA,1,1607552769966,1,NA,This is a,1,These are both,skyscraper,NA,NA,warmup1,NA,NA
2314,NA,stripmall,NA,NA,35,warmup/skyscraper2.png,stripmall,NA,This is a,I had to switch browsers to get it to work.,1,buildings,margaret,NA,skyscraper,yes,Please label the pictures below.,NA,NA,NA,NA,51,NA,NA,warmup/stripmall2.png,buildings,graduated_college,NA,NA,English,female,NA,buildings,NA,1,1607552769966,2,NA,This is a,1,These are both,skyscraper,NA,NA,warmup1,NA,NA
2314,NA,dandelion,NA,NA,35,warmup/sunflower2.png,dandelion,NA,This is a,I had to switch browsers to get it to work.,1,flowers,margaret,NA,sunflower,yes,Please label the pictures below.,NA,NA,NA,NA,51,NA,NA,warmup/dandelion2.png,plants,graduated_college,NA,NA,English,female,NA,flowers,NA,2,1607552769966,1,NA,This is a,1,These are both,sunflower,NA,NA,warmup1,NA,NA
2314,NA,dandelion,NA,NA,35,warmup/sunflower2.png,dandelion,NA,This is a,I had to switch browsers to get it to work.,1,flowers,margaret,NA,sunflower,yes,Please label the pictures below.,NA,NA,NA,NA,51,NA,NA,warmup/dandelion2.png,flowers,graduated_college,NA,NA,English,female,NA,flowers,NA,2,1607552769966,2,NA,This is a,1,These are both,sunflower,NA,NA,warmup1,NA,NA
2314,<i>What do you think Speaker A meant? </i>,NA,NA,NA,35,NA,NA,NA,NA,I had to switch browsers to get it to work.,1,NA,margaret,1,NA,yes,NA,"<b> Speaker A: ""The Empire State Building is tall.""</b>",NA,NA,NA,51,buildings,NA,NA,NA,graduated_college,NA,comp_class_warmup,English,female,NA,NA,In the main trials you will be asked to rephrase something a person said. The utterance will contain a word that is <i>relative</i> and your task is to figure out what it is relative to. <br /> <br /> For example: <br />,1,1607552769966,1,The Empire State Building is tall relative to other,NA,1,NA,NA,"buildings, skyscrapers, houses, constructions (choose one)",NA,comp_class_warmup,NA,NA
2314,What do you think your friend is saying it is small relative to?,NA,images/stripmall-landmark-filler.png,images/buildings-parade-basic_filler.png,35,NA,NA,filler,NA,I had to switch browsers to get it to work.,1,buildings,margaret,NA,NA,yes,Your friend goes ahead of you. You see your friend in the distance:,NA,pred,landmark,stripmall,51,buildings,NA,NA,NA,graduated_college,small,NA,English,female,14595,NA,You and your friend see the following:,1,1607552769966,NA,It is small relative to other,NA,1,NA,NA,NA,congruent,custom_main_text1,small,Your friend says: <br/><b>That's a small stripmall.</b>
2314,What do you think your friend is saying it is small relative to?,NA,images/dandelion.png,images/flower-parade-basic.png,35,NA,NA,critical,NA,I had to switch browsers to get it to work.,1,flowers,margaret,NA,NA,yes,Your friend goes ahead of you. You see your friend in the distance:,NA,subj,gift,dandelion,51,flowers,NA,NA,NA,graduated_college,small,NA,English,female,10921,NA,You and your friend are at a garden store and you see the following:,2,1607552769966,NA,It is small relative to other,NA,1,NA,NA,NA,congruent,custom_main_text1,small,Your friend says: <br/><b>That small dandelion is a gift.</b>
2314,What do you think your friend is saying it is big relative to?,NA,images/skyscraper-landmark.png,images/buildings-parade-basic.png,35,NA,NA,critical,NA,I had to switch browsers to get it to work.,1,buildings,margaret,NA,NA,yes,Your friend goes ahead of you. You see your friend in the distance:,NA,subj,landmark,skyscraper,51,buildings,NA,NA,NA,graduated_college,big,NA,English,female,15323,NA,You visit your friend who lives in another city. You take a walk and you see the following:,3,1607552769966,NA,It is big relative to other,NA,1,NA,NA,NA,congruent,custom_main_text1,big,Your friend says: <br/><b>That big skyscraper is a landmark.</b>
2314,What do you think your friend is saying it is big relative to?,NA,images/sunflower_filler.png,images/flower-parade-basic_filler.png,35,NA,NA,filler,NA,I had to switch browsers to get it to work.,1,flowers,margaret,NA,NA,yes,Your friend goes ahead of you. You see your friend in the distance:,NA,pred,gift,sunflower,51,flowers,NA,NA,NA,graduated_college,big,NA,English,female,14511,NA,You and your friend see the following:,4,1607552769966,NA,It is big relative to other,NA,1,NA,NA,NA,congruent,custom_main_text1,big,Your friend says: <br/><b>That's a big sunflower.</b>
2314,NA,chihuahua,NA,NA,35,warmup/doberman2.png,chihuahua,NA,This is a,I had to switch browsers to get it to work.,1,dogs1,margaret,NA,doberman,yes,Please label the pictures below.,NA,NA,NA,NA,51,NA,NA,warmup/chihuahua2.png,dogs,graduated_college,NA,NA,English,female,NA,dogs,NA,1,1607552769966,1,NA,This is a,1,These are both,doberman,NA,NA,warmup2,NA,NA
2314,NA,pug,NA,NA,35,warmup/great-dane2.png,pug,NA,This is a,I had to switch browsers to get it to work.,1,dogs2,margaret,NA,great dane,yes,Please label the pictures below.,NA,NA,NA,NA,51,NA,NA,warmup/pug2.png,dogs,graduated_college,NA,NA,English,female,NA,dogs,NA,2,1607552769966,1,NA,This is a,1,These are both,great dane,NA,NA,warmup2,NA,NA
2314,What do you think your friend is saying it is big relative to?,NA,images/great-dane_filler.png,images/dog-parade-basic2_filler.png,35,NA,NA,filler,NA,I had to switch browsers to get it to work.,1,dogs2,margaret,NA,NA,yes,Your friend goes ahead of you. You see your friend in the distance:,NA,subj,prize-winner,Great Dane,51,dogs,NA,NA,NA,graduated_college,big,NA,English,female,7213,NA,You and your friend see the following:,1,1607552769966,NA,It is big relative to other,NA,1,NA,NA,NA,congruent,custom_main_text2,big,Your friend says: <br/><b>That Great Dane is big.</b>
2314,What do you think your friend is saying it is small relative to?,NA,images/pug.png,images/dog-parade-basic2.png,35,NA,NA,critical,NA,I had to switch browsers to get it to work.,1,dogs2,margaret,NA,NA,yes,Your friend goes ahead of you. You see your friend in the distance:,NA,pred,prize-winner,pug,51,prize winners,NA,NA,NA,graduated_college,small,NA,English,female,15829,NA,You and your friend are at a pet show and you see the following:,2,1607552769966,NA,It is small relative to other,NA,1,NA,NA,NA,congruent,custom_main_text2,small,Your friend says: <br/><b>That prize-winner is a small pug.</b>
2314,What do you think your friend is saying it is small relative to?,NA,images/chihuahua_filler.png,images/dog-parade-basic_filler.png,35,NA,NA,filler,NA,I had to switch browsers to get it to work.,1,dogs1,margaret,NA,NA,yes,Your friend goes ahead of you. You see your friend in the distance:,NA,subj,service-animal,chihuahua,51,dogs,NA,NA,NA,graduated_college,small,NA,English,female,7884,NA,You and your friend see the following:,3,1607552769966,NA,It is small relative to other,NA,1,NA,NA,NA,congruent,custom_main_text2,small,Your friend says: <br/><b>That chihuahua is small.</b>
2314,What do you think your friend is saying it is big relative to?,NA,images/doberman.png,images/dog-parade-basic.png,35,NA,NA,critical,NA,I had to switch browsers to get it to work.,1,dogs1,margaret,NA,NA,yes,Your friend goes ahead of you. You see your friend in the distance:,NA,pred,service-animal,doberman,51,dobermans,NA,NA,NA,graduated_college,big,NA,English,female,12953,NA,You and your friend are at an animal training ground and you see the following:,4,1607552769966,NA,It is big relative to other,NA,1,NA,NA,NA,congruent,custom_main_text2,big,Your friend says: <br/><b>That service-animal is a big doberman.</b>
2313,NA,Doberman,NA,NA,35,warmup/chihuahua2.png,doberman,NA,This is a,NA,1,dogs1,elizabeth,NA,chihuahua,yes,Please label the pictures below.,NA,NA,NA,NA,19,NA,NA,warmup/doberman2.png,Dogs,some_high_school,NA,NA,english,other,NA,dogs,NA,1,1607552779420,1,NA,This is a,3,These are both,Chihuhua,NA,NA,warmup1,NA,NA
2313,NA,Doberman,NA,NA,35,warmup/chihuahua2.png,doberman,NA,This is a,NA,1,dogs1,elizabeth,NA,chihuahua,yes,Please label the pictures below.,NA,NA,NA,NA,19,NA,NA,warmup/doberman2.png,Dogs,some_high_school,NA,NA,english,other,NA,dogs,NA,1,1607552779420,2,NA,This is a,3,These are both,Chihuahua,NA,NA,warmup1,NA,NA
2313,NA,hummingbird,NA,NA,35,warmup/eagle2.png,hummingbird,NA,This is a,NA,1,birds,elizabeth,NA,eagle,yes,Please label the pictures below.,NA,NA,NA,NA,19,NA,NA,warmup/hummingbird2.png,birds,some_high_school,NA,NA,english,other,NA,birds,NA,2,1607552779420,1,NA,This is an,3,These are both,eagle,NA,NA,warmup1,NA,NA
2313,<i>What do you think Speaker A meant? </i>,NA,NA,NA,35,NA,NA,NA,NA,NA,1,NA,elizabeth,1,NA,yes,NA,"<b> Speaker A: ""The Empire State Building is tall.""</b>",NA,NA,NA,19,buildings,NA,NA,NA,some_high_school,NA,comp_class_warmup,english,other,NA,NA,In the main trials you will be asked to rephrase something a person said. The utterance will contain a word that is <i>relative</i> and your task is to figure out what it is relative to. <br /> <br /> For example: <br />,1,1607552779420,1,The Empire State Building is tall relative to other,NA,3,NA,NA,"buildings, skyscrapers, houses, constructions (choose one)",NA,comp_class_warmup,NA,NA
2313,What do you think your friend is saying it is small relative to?,NA,images/hummingbird_filler.png,images/bird-parade-basic_filler.png,35,NA,NA,filler,NA,NA,1,birds,elizabeth,NA,NA,yes,Your friend goes ahead of you. You see your friend in the distance:,NA,pred,rescue,hummingbird,19,birds,NA,NA,NA,some_high_school,small,NA,english,other,11958,NA,You and your friend see the following:,1,1607552779420,NA,It is small relative to other,NA,3,NA,NA,NA,congruent,custom_main_text1,small,Your friend says: <br/><b>That's a small hummingbird.</b>
2313,What do you think your friend is saying it is big relative to?,NA,images/doberman_filler.png,images/dog-parade-basic_filler.png,35,NA,NA,filler,NA,NA,1,dogs1,elizabeth,NA,NA,yes,Your friend goes ahead of you. You see your friend in the distance:,NA,pred,service-animal,doberman,19,dogs,NA,NA,NA,some_high_school,big,NA,english,other,5560,NA,You and your friend see the following:,2,1607552779420,NA,It is big relative to other,NA,3,NA,NA,NA,congruent,custom_main_text1,big,Your friend says: <br/><b>That's a big doberman.</b>
2313,What do you think your friend is saying it is small relative to?,NA,images/chihuahua.png,images/dog-parade-basic.png,35,NA,NA,critical,NA,NA,1,dogs1,elizabeth,NA,NA,yes,Your friend goes ahead of you. You see your friend in the distance:,NA,subj,service-animal,chihuahua,19,dogs,NA,NA,NA,some_high_school,small,NA,english,other,8876,NA,You and your friend are at an animal training ground and you see the following:,3,1607552779420,NA,It is small relative to other,NA,3,NA,NA,NA,congruent,custom_main_text1,small,Your friend says: <br/><b>That small chihuahua is a service-animal.</b>
2313,What do you think your friend is saying it is big relative to?,NA,images/eagle.png,images/bird-parade-basic.png,35,NA,NA,critical,NA,NA,1,birds,elizabeth,NA,NA,yes,Your friend goes ahead of you. You see your friend in the distance:,NA,subj,rescue,eagle,19,birds,NA,NA,NA,some_high_school,big,NA,english,other,5540,NA,You visit your friend who works at an animal shelter and you see the following:,4,1607552779420,NA,It is big relative to other,NA,3,NA,NA,NA,congruent,custom_main_text1,big,Your friend says: <br/><b>That big eagle is a rescue.</b>
2313,NA,Great Dane,NA,NA,35,warmup/pug2.png,great dane,NA,This is a,NA,1,dogs2,elizabeth,NA,pug,yes,Please label the pictures below.,NA,NA,NA,NA,19,NA,NA,warmup/great-dane2.png,Dogs,some_high_school,NA,NA,english,other,NA,dogs,NA,1,1607552779420,1,NA,This is a,3,These are both,Pug,NA,NA,warmup2,NA,NA
2313,NA,dandelion,NA,NA,35,warmup/sunflower2.png,dandelion,NA,This is a,NA,1,flowers,elizabeth,NA,sunflower,yes,Please label the pictures below.,NA,NA,NA,NA,19,NA,NA,warmup/dandelion2.png,flowers,some_high_school,NA,NA,english,other,NA,flowers,NA,2,1607552779420,1,NA,This is a,3,These are both,sunflower,NA,NA,warmup2,NA,NA
2313,What do you think your friend is saying it is small relative to?,NA,images/dandelion_filler.png,images/flower-parade-basic_filler.png,35,NA,NA,filler,NA,NA,1,flowers,elizabeth,NA,NA,yes,Your friend goes ahead of you. You see your friend in the distance:,NA,subj,landmark,dandelion,19,flowers,NA,NA,NA,some_high_school,small,NA,english,other,6598,NA,You and your friend see the following:,1,1607552779420,NA,It is small relative to other,NA,3,NA,NA,NA,congruent,custom_main_text2,small,Your friend says: <br/><b>That dandelion is small.</b>
2313,What do you think your friend is saying it is big relative to?,NA,images/sunflower-landmark.png,images/flower-parade-basic-landmark.png,35,NA,NA,critical,NA,NA,1,flowers,elizabeth,NA,NA,yes,Your friend goes ahead of you. You see your friend in the distance:,NA,pred,landmark,sunflower,19,flowers,NA,NA,NA,some_high_school,big,NA,english,other,5524,NA,You and your friend walk to a cabin you are renting for the weekend for the first time. You go along the path and you see the following:,2,1607552779420,NA,It is big relative to other,NA,3,NA,NA,NA,congruent,custom_main_text2,big,Your friend says: <br/><b>That landmark is a big sunflower.</b>
2313,What do you think your friend is saying it is big relative to?,NA,images/great-dane_filler.png,images/dog-parade-basic2_filler.png,35,NA,NA,filler,NA,NA,1,dogs2,elizabeth,NA,NA,yes,Your friend goes ahead of you. You see your friend in the distance:,NA,subj,gift,Great Dane,19,dogs,NA,NA,NA,some_high_school,big,NA,english,other,3508,NA,You and your friend see the following:,3,1607552779420,NA,It is big relative to other,NA,3,NA,NA,NA,congruent,custom_main_text2,big,Your friend says: <br/><b>That Great Dane is big.</b>
2313,What do you think your friend is saying it is small relative to?,NA,images/pug-gift.png,images/dog-parade-basic2-gift.png,35,NA,NA,critical,NA,NA,1,dogs2,elizabeth,NA,NA,yes,Your friend goes ahead of you. You see your friend in the distance:,NA,pred,gift,pug,19,dogs,NA,NA,NA,some_high_school,small,NA,english,other,6767,NA,You and your friend are at a pet store and you see the following:,4,1607552779420,NA,It is small relative to other,NA,3,NA,NA,NA,congruent,custom_main_text2,small,Your friend says: <br/><b>That gift is a small pug.</b>
2312,NA,tuna,NA,NA,35,warmup/clownfish2.png,tuna,NA,This is a,No,2,fish,susan,NA,clownfish,yes,Please label the pictures below.,NA,NA,NA,NA,55,NA,I loved this experiment!,warmup/tuna2.png,fish,graduated_college,NA,NA,English,female,NA,fish,NA,1,1607552509487,1,NA,This is a,1,These are both,clownfish,NA,NA,warmup1,NA,NA
2312,NA,sunflower,NA,NA,35,warmup/dandelion2.png,sunflower,NA,This is a,No,2,flowers,susan,NA,dandelion,yes,Please label the pictures below.,NA,NA,NA,NA,55,NA,I loved this experiment!,warmup/sunflower2.png,plants,graduated_college,NA,NA,English,female,NA,flowers,NA,2,1607552509487,1,NA,This is a,1,These are both,dandelion,NA,NA,warmup1,NA,NA
2312,NA,sunflower,NA,NA,35,warmup/dandelion2.png,sunflower,NA,This is a,No,2,flowers,susan,NA,dandelion,yes,Please label the pictures below.,NA,NA,NA,NA,55,NA,I loved this experiment!,warmup/sunflower2.png,flowers,graduated_college,NA,NA,English,female,NA,flowers,NA,2,1607552509487,2,NA,This is a,1,These are both,dandelion,NA,NA,warmup1,NA,NA
2312,<i>What do you think Speaker A meant? </i>,NA,NA,NA,35,NA,NA,NA,NA,No,2,NA,susan,1,NA,yes,NA,"<b> Speaker A: ""The Empire State Building is tall.""</b>",NA,NA,NA,55,buildings,I loved this experiment!,NA,NA,graduated_college,NA,comp_class_warmup,English,female,NA,NA,In the main trials you will be asked to rephrase something a person said. The utterance will contain a word that is <i>relative</i> and your task is to figure out what it is relative to. <br /> <br /> For example: <br />,1,1607552509487,1,The Empire State Building is tall relative to other,NA,1,NA,NA,"buildings, skyscrapers, houses, constructions (choose one)",NA,comp_class_warmup,NA,NA
2312,What do you think your friend is saying it is big relative to?,NA,images/sunflower_filler.png,images/flower-parade-basic_filler.png,35,NA,NA,filler,NA,No,2,flowers,susan,NA,NA,yes,Your friend goes ahead of you. You see your friend in the distance:,NA,subj,landmark,sunflower,55,flowers,I loved this experiment!,NA,NA,graduated_college,big,NA,English,female,20760,NA,You and your friend see the following:,1,1607552509487,NA,It is big relative to other,NA,1,NA,NA,NA,congruent,custom_main_text1,big,Your friend says: <br/><b>That sunflower is big.</b>
2312,What do you think your friend is saying it is small relative to?,NA,images/dandelion-landmark.png,images/flower-parade-basic-landmark.png,35,NA,NA,critical,NA,No,2,flowers,susan,NA,NA,yes,Your friend goes ahead of you. You see your friend in the distance:,NA,pred,landmark,dandelion,55,dandelions,I loved this experiment!,NA,NA,graduated_college,small,NA,English,female,31641,NA,You and your friend walk to a cabin you are renting for the weekend for the first time. You go along the path and you see the following:,2,1607552509487,NA,It is small relative to other,NA,1,NA,NA,NA,congruent,custom_main_text1,small,Your friend says: <br/><b>That landmark is a small dandelion.</b>
2312,What do you think your friend is saying it is big relative to?,NA,images/tuna_filler.png,images/fish-parade-basic_filler.png,35,NA,NA,filler,NA,No,2,fish,susan,NA,NA,yes,Your friend goes ahead of you. You see your friend in the distance:,NA,pred,rescue,tuna,55,fish,I loved this experiment!,NA,NA,graduated_college,big,NA,English,female,24976,NA,You and your friend see the following:,3,1607552509487,NA,It is big relative to other,NA,1,NA,NA,NA,congruent,custom_main_text1,big,Your friend says: <br/><b>That's a big tuna.</b>
2312,What do you think your friend is saying it is small relative to?,NA,images/clownfish_net.png,images/fish-parade-basic.png,35,NA,NA,critical,NA,No,2,fish,susan,NA,NA,yes,Your friend goes ahead of you. You see your friend in the distance:,NA,subj,rescue,clownfish,55,fish,I loved this experiment!,NA,NA,graduated_college,small,NA,English,female,21623,NA,You visit your friend who works as a marine biologist and you see the following:,4,1607552509487,NA,It is small relative to other,NA,1,NA,NA,NA,congruent,custom_main_text1,small,Your friend says: <br/><b>That small clownfish is a rescue.</b>
2312,NA,doberman,NA,NA,35,warmup/chihuahua2.png,doberman,NA,This is a,No,2,dogs1,susan,NA,chihuahua,yes,Please label the pictures below.,NA,NA,NA,NA,55,NA,I loved this experiment!,warmup/doberman2.png,dogs,graduated_college,NA,NA,English,female,NA,dogs,NA,1,1607552509487,1,NA,This is a,1,These are both,chihuahua,NA,NA,warmup2,NA,NA
2312,NA,great dane,NA,NA,35,warmup/pug2.png,great dane,NA,This is a,No,2,dogs2,susan,NA,pug,yes,Please label the pictures below.,NA,NA,NA,NA,55,NA,I loved this experiment!,warmup/great-dane2.png,dogs,graduated_college,NA,NA,English,female,NA,dogs,NA,2,1607552509487,1,NA,This is a,1,These are both,pug,NA,NA,warmup2,NA,NA
2312,What do you think your friend is saying it is small relative to?,NA,images/chihuahua_filler.png,images/dog-parade-basic_filler.png,35,NA,NA,filler,NA,No,2,dogs1,susan,NA,NA,yes,Your friend goes ahead of you. You see your friend in the distance:,NA,pred,service-animal,chihuahua,55,chihuahua,I loved this experiment!,NA,NA,graduated_college,small,NA,English,female,15808,NA,You and your friend see the following:,1,1607552509487,NA,It is small relative to other,NA,1,NA,NA,NA,congruent,custom_main_text2,small,Your friend says: <br/><b>That's a small chihuahua.</b>
2312,What do you think your friend is saying it is big relative to?,NA,images/doberman.png,images/dog-parade-basic.png,35,NA,NA,critical,NA,No,2,dogs1,susan,NA,NA,yes,Your friend goes ahead of you. You see your friend in the distance:,NA,subj,service-animal,doberman,55,dogs,I loved this experiment!,NA,NA,graduated_college,big,NA,English,female,6784,NA,You and your friend are at an animal training ground and you see the following:,2,1607552509487,NA,It is big relative to other,NA,1,NA,NA,NA,congruent,custom_main_text2,big,Your friend says: <br/><b>That big doberman is a service-animal.</b>
2312,What do you think your friend is saying it is small relative to?,NA,images/pug_filler.png,images/dog-parade-basic2_filler.png,35,NA,NA,filler,NA,No,2,dogs2,susan,NA,NA,yes,Your friend goes ahead of you. You see your friend in the distance:,NA,subj,prize-winner,pug,55,dogs,I loved this experiment!,NA,NA,graduated_college,small,NA,English,female,8736,NA,You and your friend see the following:,3,1607552509487,NA,It is small relative to other,NA,1,NA,NA,NA,congruent,custom_main_text2,small,Your friend says: <br/><b>That pug is small.</b>
2312,What do you think your friend is saying it is big relative to?,NA,images/great-dane.png,images/dog-parade-basic2.png,35,NA,NA,critical,NA,No,2,dogs2,susan,NA,NA,yes,Your friend goes ahead of you. You see your friend in the distance:,NA,pred,prize-winner,Great Dane,55,dogs,I loved this experiment!,NA,NA,graduated_college,big,NA,English,female,8928,NA,You and your friend are at a pet show and you see the following:,4,1607552509487,NA,It is big relative to other,NA,1,NA,NA,NA,congruent,custom_main_text2,big,Your friend says: <br/><b>That prize-winner is a big Great Dane.</b>
2311,NA,bonsai,NA,NA,35,warmup/redwood2.png,bonsai,NA,This is a,NA,1,trees,linda,NA,redwood or sequoia (choose one),NA,Please label the pictures below.,NA,NA,NA,NA,NA,NA,NA,warmup/bonsai2.png,trees,graduated_college,NA,NA,English,female,NA,trees,NA,1,1607552187033,1,NA,This is a,3,These are both,redwood,NA,NA,warmup1,NA,NA
2311,NA,doberman,NA,NA,35,warmup/chihuahua2.png,doberman,NA,This is a,NA,1,dogs1,linda,NA,chihuahua,NA,Please label the pictures below.,NA,NA,NA,NA,NA,NA,NA,warmup/doberman2.png,dogs,graduated_college,NA,NA,English,female,NA,dogs,NA,2,1607552187033,1,NA,This is a,3,These are both,chihuahua,NA,NA,warmup1,NA,NA
2311,<i>What do you think Speaker A meant? </i>,NA,NA,NA,35,NA,NA,NA,NA,NA,1,NA,linda,1,NA,NA,NA,"<b> Speaker A: ""The Empire State Building is tall.""</b>",NA,NA,NA,NA,buildings,NA,NA,NA,graduated_college,NA,comp_class_warmup,English,female,NA,NA,In the main trials you will be asked to rephrase something a person said. The utterance will contain a word that is <i>relative</i> and your task is to figure out what it is relative to. <br /> <br /> For example: <br />,1,1607552187033,1,The Empire State Building is tall relative to other,NA,3,NA,NA,"buildings, skyscrapers, houses, constructions (choose one)",NA,comp_class_warmup,NA,NA
2311,What do you think your friend is saying it is big relative to?,NA,images/redwood_filler.png,images/tree-parade-basic_filler.png,35,NA,NA,filler,NA,NA,1,trees,linda,NA,NA,NA,Your friend goes ahead of you. You see your friend in the distance:,NA,subj,landmark,redwood,NA,trees or people,NA,NA,NA,graduated_college,big,NA,English,female,12559,NA,You and your friend see the following:,1,1607552187033,NA,It is big relative to other,NA,3,NA,NA,NA,congruent,custom_main_text1,big,Your friend says: <br/><b>That redwood is big.</b>
2311,What do you think your friend is saying it is small relative to?,NA,images/chihuahua_filler.png,images/dog-parade-basic_filler.png,35,NA,NA,filler,NA,NA,1,dogs1,linda,NA,NA,NA,Your friend goes ahead of you. You see your friend in the distance:,NA,pred,service-animal,chihuahua,NA,dogs or people,NA,NA,NA,graduated_college,small,NA,English,female,13734,NA,You and your friend see the following:,2,1607552187033,NA,It is small relative to other,NA,3,NA,NA,NA,congruent,custom_main_text1,small,Your friend says: <br/><b>That's a small chihuahua.</b>
2311,What do you think your friend is saying it is small relative to?,NA,images/bonsai_stick.png,images/tree-parade-basic.png,35,NA,NA,critical,NA,NA,1,trees,linda,NA,NA,NA,Your friend goes ahead of you. You see your friend in the distance:,NA,pred,landmark,bonsai,NA,trees,NA,NA,NA,graduated_college,small,NA,English,female,17579,NA,You and your friend walk to your friend's cabin in a park for the first time. You want to memorize the path and you see the following:,3,1607552187033,NA,It is small relative to other,NA,3,NA,NA,NA,congruent,custom_main_text1,small,Your friend says: <br/><b>That landmark is a small bonsai.</b>
2311,What do you think your friend is saying it is big relative to?,NA,images/doberman.png,images/dog-parade-basic.png,35,NA,NA,critical,NA,NA,1,dogs1,linda,NA,NA,NA,Your friend goes ahead of you. You see your friend in the distance:,NA,subj,service-animal,doberman,NA,dogs,NA,NA,NA,graduated_college,big,NA,English,female,8324,NA,You and your friend are at an animal training ground and you see the following:,4,1607552187033,NA,It is big relative to other,NA,3,NA,NA,NA,congruent,custom_main_text1,big,Your friend says: <br/><b>That big doberman is a service-animal.</b>
2311,NA,hummingbird,NA,NA,35,warmup/eagle2.png,hummingbird,NA,This is a,NA,1,birds,linda,NA,eagle,NA,Please label the pictures below.,NA,NA,NA,NA,NA,NA,NA,warmup/hummingbird2.png,birds,graduated_college,NA,NA,English,female,NA,birds,NA,1,1607552187033,1,NA,This is an,3,These are both,eagle,NA,NA,warmup2,NA,NA
2311,NA,pug,NA,NA,35,warmup/great-dane2.png,pug,NA,This is a,NA,1,dogs2,linda,NA,great dane,NA,Please label the pictures below.,NA,NA,NA,NA,NA,NA,NA,warmup/pug2.png,dogs,graduated_college,NA,NA,English,female,NA,dogs,NA,2,1607552187033,1,NA,This is a,3,These are both,great dane,NA,NA,warmup2,NA,NA
2311,What do you think your friend is saying it is big relative to?,NA,images/great-dane_filler.png,images/dog-parade-basic2_filler.png,35,NA,NA,filler,NA,NA,1,dogs2,linda,NA,NA,NA,Your friend goes ahead of you. You see your friend in the distance:,NA,pred,gift,Great Dane,NA,dogs or people,NA,NA,NA,graduated_college,big,NA,English,female,13193,NA,You and your friend see the following:,1,1607552187033,NA,It is big relative to other,NA,3,NA,NA,NA,congruent,custom_main_text2,big,Your friend says: <br/><b>That's a big Great Dane.</b>
2311,What do you think your friend is saying it is big relative to?,NA,images/eagle.png,images/bird-parade-basic.png,35,NA,NA,critical,NA,NA,1,birds,linda,NA,NA,NA,Your friend goes ahead of you. You see your friend in the distance:,NA,pred,rescue,eagle,NA,birds or people,NA,NA,NA,graduated_college,big,NA,English,female,7567,NA,You visit your friend who works at an animal shelter and you see the following:,2,1607552187033,NA,It is big relative to other,NA,3,NA,NA,NA,congruent,custom_main_text2,big,Your friend says: <br/><b>That rescue is a big eagle.</b>
2311,What do you think your friend is saying it is small relative to?,NA,images/pug-gift.png,images/dog-parade-basic2-gift.png,35,NA,NA,critical,NA,NA,1,dogs2,linda,NA,NA,NA,Your friend goes ahead of you. You see your friend in the distance:,NA,subj,gift,pug,NA,dogs or people,NA,NA,NA,graduated_college,small,NA,English,female,10718,NA,You and your friend are at a pet store and you see the following:,3,1607552187033,NA,It is small relative to other,NA,3,NA,NA,NA,congruent,custom_main_text2,small,Your friend says: <br/><b>That small pug is a gift.</b>
2311,What do you think your friend is saying it is small relative to?,NA,images/hummingbird_filler.png,images/bird-parade-basic_filler.png,35,NA,NA,filler,NA,NA,1,birds,linda,NA,NA,NA,Your friend goes ahead of you. You see your friend in the distance:,NA,subj,rescue,hummingbird,NA,birds or people,NA,NA,NA,graduated_college,small,NA,English,female,6224,NA,You and your friend see the following:,4,1607552187033,NA,It is small relative to other,NA,3,NA,NA,NA,congruent,custom_main_text2,small,Your friend says: <br/><b>That hummingbird is small.</b>
2310,NA,Great Dane,NA,NA,35,warmup/pug2.png,great dane,NA,This is a,NA,NA,dogs2,jennifer,NA,pug,yes,Please label the pictures below.,NA,NA,NA,NA,NA,NA,NA,warmup/great-dane2.png,Dogs,NA,NA,NA,English,NA,NA,dogs,NA,1,1607552077005,1,NA,This is a,NA,These are both,Pug,NA,NA,warmup1,NA,NA
2310,NA,doberman,NA,NA,35,warmup/chihuahua2.png,doberman,NA,This is a,NA,NA,dogs1,jennifer,NA,chihuahua,yes,Please label the pictures below.,NA,NA,NA,NA,NA,NA,NA,warmup/doberman2.png,Dogs,NA,NA,NA,English,NA,NA,dogs,NA,2,1607552077005,1,NA,This is a,NA,These are both,Chihuahua,NA,NA,warmup1,NA,NA
2310,<i>What do you think Speaker A meant? </i>,NA,NA,NA,35,NA,NA,NA,NA,NA,NA,NA,jennifer,1,NA,yes,NA,"<b> Speaker A: ""The Empire State Building is tall.""</b>",NA,NA,NA,NA,buildings,NA,NA,NA,NA,NA,comp_class_warmup,English,NA,NA,NA,In the main trials you will be asked to rephrase something a person said. The utterance will contain a word that is <i>relative</i> and your task is to figure out what it is relative to. <br /> <br /> For example: <br />,1,1607552077005,1,The Empire State Building is tall relative to other,NA,NA,NA,NA,"buildings, skyscrapers, houses, constructions (choose one)",NA,comp_class_warmup,NA,NA
2310,What do you think your friend is saying it is big relative to?,NA,images/great-dane_filler.png,images/dog-parade-basic2_filler.png,35,NA,NA,filler,NA,NA,NA,dogs2,jennifer,NA,NA,yes,Your friend goes ahead of you. You see your friend in the distance:,NA,subj,gift,Great Dane,NA,dogs,NA,NA,NA,NA,big,NA,English,NA,17762,NA,You and your friend see the following:,1,1607552077005,NA,It is big relative to other,NA,NA,NA,NA,NA,congruent,custom_main_text1,big,Your friend says: <br/><b>That Great Dane is big.</b>
2310,What do you think your friend is saying it is small relative to?,NA,images/chihuahua.png,images/dog-parade-basic.png,35,NA,NA,critical,NA,NA,NA,dogs1,jennifer,NA,NA,yes,Your friend goes ahead of you. You see your friend in the distance:,NA,subj,service-animal,chihuahua,NA,animals,NA,NA,NA,NA,small,NA,English,NA,19891,NA,You and your friend are at an animal training ground and you see the following:,2,1607552077005,NA,It is small relative to other,NA,NA,NA,NA,NA,congruent,custom_main_text1,small,Your friend says: <br/><b>That small chihuahua is a service-animal.</b>
2310,What do you think your friend is saying it is small relative to?,NA,images/pug-gift.png,images/dog-parade-basic2-gift.png,35,NA,NA,critical,NA,NA,NA,dogs2,jennifer,NA,NA,yes,Your friend goes ahead of you. You see your friend in the distance:,NA,pred,gift,pug,NA,Pugs,NA,NA,NA,NA,small,NA,English,NA,11977,NA,You and your friend are at a pet store and you see the following:,3,1607552077005,NA,It is small relative to other,NA,NA,NA,NA,NA,congruent,custom_main_text1,small,Your friend says: <br/><b>That gift is a small pug.</b>
2310,What do you think your friend is saying it is big relative to?,NA,images/doberman_filler.png,images/dog-parade-basic_filler.png,35,NA,NA,filler,NA,NA,NA,dogs1,jennifer,NA,NA,yes,Your friend goes ahead of you. You see your friend in the distance:,NA,pred,service-animal,doberman,NA,Doberman,NA,NA,NA,NA,big,NA,English,NA,12132,NA,You and your friend see the following:,4,1607552077005,NA,It is big relative to other,NA,NA,NA,NA,NA,congruent,custom_main_text1,big,Your friend says: <br/><b>That's a big doberman.</b>
2310,NA,Skyscraper,NA,NA,35,warmup/stripmall2.png,skyscraper,NA,This is a,NA,NA,buildings,jennifer,NA,stripmall,yes,Please label the pictures below.,NA,NA,NA,NA,NA,NA,NA,warmup/skyscraper2.png,Buildings,NA,NA,NA,English,NA,NA,buildings,NA,1,1607552077005,1,NA,This is a,NA,These are both,Strip mall,NA,NA,warmup2,NA,NA
2310,NA,Skyscraper,NA,NA,35,warmup/stripmall2.png,skyscraper,NA,This is a,NA,NA,buildings,jennifer,NA,stripmall,yes,Please label the pictures below.,NA,NA,NA,NA,NA,NA,NA,warmup/skyscraper2.png,Buildings,NA,NA,NA,English,NA,NA,buildings,NA,1,1607552077005,2,NA,This is a,NA,These are both,Strip mall,NA,NA,warmup2,NA,NA
2310,NA,Skyscraper,NA,NA,35,warmup/stripmall2.png,skyscraper,NA,This is a,NA,NA,buildings,jennifer,NA,stripmall,yes,Please label the pictures below.,NA,NA,NA,NA,NA,NA,NA,warmup/skyscraper2.png,Buildings,NA,NA,NA,English,NA,NA,buildings,NA,1,1607552077005,3,NA,This is a,NA,These are both,Stripmall,NA,NA,warmup2,NA,NA
2310,NA,Swordfish,NA,NA,35,warmup/clownfish2.png,tuna,NA,This is a,NA,NA,fish,jennifer,NA,clownfish,yes,Please label the pictures below.,NA,NA,NA,NA,NA,NA,NA,warmup/tuna2.png,Fish,NA,NA,NA,English,NA,NA,fish,NA,2,1607552077005,1,NA,This is a,NA,These are both,Clownfish,NA,NA,warmup2,NA,NA
2310,NA,Tuna,NA,NA,35,warmup/clownfish2.png,tuna,NA,This is a,NA,NA,fish,jennifer,NA,clownfish,yes,Please label the pictures below.,NA,NA,NA,NA,NA,NA,NA,warmup/tuna2.png,Fish,NA,NA,NA,English,NA,NA,fish,NA,2,1607552077005,2,NA,This is a,NA,These are both,Clownfish,NA,NA,warmup2,NA,NA
2310,What do you think your friend is saying it is small relative to?,NA,images/stripmall-landmark-filler.png,images/buildings-parade-basic_filler.png,35,NA,NA,filler,NA,NA,NA,buildings,jennifer,NA,NA,yes,Your friend goes ahead of you. You see your friend in the distance:,NA,pred,landmark,stripmall,NA,Stripmalls,NA,NA,NA,NA,small,NA,English,NA,14983,NA,You and your friend see the following:,1,1607552077005,NA,It is small relative to other,NA,NA,NA,NA,NA,congruent,custom_main_text2,small,Your friend says: <br/><b>That's a small stripmall.</b>
2310,What do you think your friend is saying it is small relative to?,NA,images/clownfish_filler.png,images/fish-parade-basic_filler.png,35,NA,NA,filler,NA,NA,NA,fish,jennifer,NA,NA,yes,Your friend goes ahead of you. You see your friend in the distance:,NA,subj,rescue,clownfish,NA,Fish,NA,NA,NA,NA,small,NA,English,NA,19948,NA,You and your friend see the following:,2,1607552077005,NA,It is small relative to other,NA,NA,NA,NA,NA,congruent,custom_main_text2,small,Your friend says: <br/><b>That clownfish is small.</b>
2310,What do you think your friend is saying it is big relative to?,NA,images/tuna_net.png,images/fish-parade-basic.png,35,NA,NA,critical,NA,NA,NA,fish,jennifer,NA,NA,yes,Your friend goes ahead of you. You see your friend in the distance:,NA,pred,rescue,tuna,NA,Tuna,NA,NA,NA,NA,big,NA,English,NA,15908,NA,You visit your friend who works as a marine biologist and you see the following:,3,1607552077005,NA,It is big relative to other,NA,NA,NA,NA,NA,congruent,custom_main_text2,big,Your friend says: <br/><b>That rescue is a big tuna.</b>
2310,What do you think your friend is saying it is big relative to?,NA,images/skyscraper-landmark.png,images/buildings-parade-basic.png,35,NA,NA,critical,NA,NA,NA,buildings,jennifer,NA,NA,yes,Your friend goes ahead of you. You see your friend in the distance:,NA,subj,landmark,skyscraper,NA,Skyscrapers,NA,NA,NA,NA,big,NA,English,NA,15233,NA,You visit your friend who lives in another city. You take a walk and you see the following:,4,1607552077005,NA,It is big relative to other,NA,NA,NA,NA,NA,congruent,custom_main_text2,big,Your friend says: <br/><b>That big skyscraper is a landmark.</b>
