submission_id,question,target_picture,context_picture,experiment_id,trial_type,problems,enjoyment,item,botresponse,trials,option2,option1,understand,text,sentence,optionLeft,syntax,ref_np,target,age,response,comments,education,target_size,name,languages,sex,RT,context,trial_number,attempts,item_noun,paraphrase,fairprice,correct,adj_cond,trial_name,adj,utterance
2956,<i>What do you think Speaker A meant? </i>,NA,NA,42,NA,No,1,NA,Barbara,1,NA,NA,yes,NA,"<b> Speaker A: ""The Empire State Building is tall.""</b>",NA,NA,NA,NA,25,other buildings,NA,higher_degree,NA,comp_class_warmup,English,female,NA,In the main trials you will be asked to rephrase something a person said. The utterance will contain a word that is <i>relative</i> and your task is to figure out what it is relative to. <br /> <br /> For example: <br />,1,1,NA,The Empire State Building is tall relative to other,2,"buildings, skyscrapers, houses, constructions (choose one)",NA,comp_class_warmup,NA,NA
2956,<i>What do you think Speaker A meant? </i>,NA,NA,42,NA,No,1,NA,Barbara,1,NA,NA,yes,NA,"<b> Speaker A: ""The Empire State Building is tall.""</b>",NA,NA,NA,NA,25,buildings,NA,higher_degree,NA,comp_class_warmup,English,female,NA,In the main trials you will be asked to rephrase something a person said. The utterance will contain a word that is <i>relative</i> and your task is to figure out what it is relative to. <br /> <br /> For example: <br />,1,2,NA,The Empire State Building is tall relative to other,2,"buildings, skyscrapers, houses, constructions (choose one)",NA,comp_class_warmup,NA,NA
2956,What do you think your friend is saying it is big relative to?,images/skyscraper-landmark-filler.png,images/buildings-parade-basic_filler.png,42,filler,No,1,buildings,Barbara,NA,skyscrapers,buildings,yes,Your friend points to something in the distance (not shown).,NA,0,pred,landmark,skyscraper,25,skyscrapers,NA,higher_degree,big,NA,English,female,12630,You and your friend see the following:,1,NA,buildings_landmark,It is big relative to other,2,NA,congruent,custom_main_text1,big,Your friend says: <br/><b>That's a big skyscraper.</b>
2956,What do you think your friend is saying it is big relative to?,images/doberman-rescue.png,images/dog-parade-basic-rescue.png,42,critical,No,1,dogs1,Barbara,NA,dobermans,dogs,yes,Your friend points to something in the distance (not shown).,NA,0,subj,rescue,doberman,25,dobermans,NA,higher_degree,big,NA,English,female,21021,You visit your friend who works at an animal shelter and you see the following:,2,NA,dogs1_rescue,It is big relative to other,2,NA,congruent,custom_main_text1,big,Your friend says: <br/><b>That big doberman is a rescue.</b>
2956,What do you think your friend is saying it is big relative to?,images/great-dane-gift.png,images/dog-parade-basic2_stray_wLeash.png,42,critical,No,1,dogs2,Barbara,NA,Great Danes,dogs,yes,Your friend points to something in the distance (not shown).,NA,0,pred,stray,Great Dane,25,Great,NA,higher_degree,big,NA,English,female,11451,You and your friend take a walk in the city park and you see the following:,3,NA,dogs2_stray,It is big relative to other,2,NA,congruent,custom_main_text1,big,Your friend says: <br/><b>That stray is a big Great Dane.</b>
2956,What do you think your friend is saying it is small relative to?,images/bonsai_filler.png,images/tree-parade-basic_filler.png,42,filler,No,1,trees,Barbara,NA,bonsais,trees,yes,Your friend points to something in the distance (not shown).,NA,0,pred,landmark,bonsai,25,bonsais,NA,higher_degree,small,NA,English,female,8614,You and your friend see the following:,4,NA,trees_landmark,It is small relative to other,2,NA,congruent,custom_main_text1,small,Your friend says: <br/><b>That's a small bonsai.</b>
2956,What do you think your friend is saying it is small relative to?,images/clownfish_net.png,images/fish-parade-basic.png,42,critical,No,1,fish,Barbara,NA,clownfish,fish,yes,Your friend points to something in the distance (not shown).,NA,0,pred,rescue,clownfish,25,clownfish,NA,higher_degree,small,NA,English,female,11688,You visit your friend who works as a marine biologist and you see the following:,5,NA,fish_rescue,It is small relative to other,2,NA,congruent,custom_main_text1,small,Your friend says: <br/><b>That rescue is a small clownfish.</b>
2956,What do you think your friend is saying it is small relative to?,images/pug_filler.png,images/dog-parade-basic2_filler2.png,42,filler,No,1,dogs2,Barbara,NA,pugs,dogs,yes,Your friend points to something in the distance (not shown).,NA,0,subj,stray,pug,25,dogs,NA,higher_degree,small,NA,English,female,8700,You and your friend see the following:,6,NA,dogs2_stray,It is small relative to other,2,NA,congruent,custom_main_text1,small,Your friend says: <br/><b>That pug is small.</b>
2956,What do you think your friend is saying it is big relative to?,images/great-dane.png,images/dog-parade-basic2.png,42,critical,No,1,dogs2,Barbara,NA,Great Danes,dogs,yes,Your friend points to something in the distance (not shown).,NA,0,pred,prize-winner,Great Dane,25,Great,NA,higher_degree,big,NA,English,female,14283,You and your friend are at a pet show and you see the following:,7,NA,dogs2_prize,It is big relative to other,2,NA,congruent,custom_main_text1,big,Your friend says: <br/><b>That prize-winner is a big Great Dane.</b>
2956,What do you think your friend is saying it is small relative to?,images/chihuahua_filler.png,images/dog-parade-basic_filler.png,42,filler,No,1,dogs1,Barbara,NA,chihuahuas,dogs,yes,Your friend points to something in the distance (not shown).,NA,0,pred,rescue,chihuahua,25,chihuahuas,NA,higher_degree,small,NA,English,female,5990,You and your friend see the following:,8,NA,dogs1_rescue,It is small relative to other,2,NA,congruent,custom_main_text1,small,Your friend says: <br/><b>That's a small chihuahua.</b>
2956,What do you think your friend is saying it is big relative to?,images/redwood_sign.png,images/tree-parade-basic.png,42,critical,No,1,trees,Barbara,NA,redwoods,trees,yes,Your friend points to something in the distance (not shown).,NA,0,subj,landmark,redwood,25,trees,NA,higher_degree,big,NA,English,female,20878,You and your friend walk to your friend's cabin in a park for the first time. You want to memorize the path and you see the following:,9,NA,trees_landmark,It is big relative to other,2,NA,congruent,custom_main_text1,big,Your friend says: <br/><b>That big redwood is a landmark.</b>
2956,What do you think your friend is saying it is small relative to?,images/pug_filler.png,images/dog-parade-basic2_filler.png,42,filler,No,1,dogs2,Barbara,NA,pugs,dogs,yes,Your friend points to something in the distance (not shown).,NA,0,subj,prize-winner,pug,25,pugs,NA,higher_degree,small,NA,English,female,8876,You and your friend see the following:,10,NA,dogs2_prize,It is small relative to other,2,NA,congruent,custom_main_text1,small,Your friend says: <br/><b>That pug is small.</b>
2956,What do you think your friend is saying it is small relative to?,images/chihuahua.png,images/dog-parade-basic.png,42,critical,No,1,dogs1,Barbara,NA,chihuahuas,dogs,yes,Your friend points to something in the distance (not shown).,NA,0,pred,service animal,chihuahua,25,chihuahuas,NA,higher_degree,small,NA,English,female,13640,You and your friend are at an animal training ground and you see the following:,11,NA,dogs1_service,It is small relative to other,2,NA,congruent,custom_main_text1,small,Your friend says: <br/><b>That service animal is a small chihuahua.</b>
2956,What do you think your friend is saying it is big relative to?,images/tuna_filler.png,images/fish-parade-basic_filler.png,42,filler,No,1,fish,Barbara,NA,tunas,fish,yes,Your friend points to something in the distance (not shown).,NA,0,subj,rescue,tuna,25,fish,NA,higher_degree,big,NA,English,female,5200,You and your friend see the following:,12,NA,fish_rescue,It is big relative to other,2,NA,congruent,custom_main_text1,big,Your friend says: <br/><b>That tuna is big.</b>
2956,What do you think your friend is saying it is small relative to?,images/dandelion.png,images/flower-parade-basic.png,42,critical,No,1,flowers,Barbara,NA,dandelions,flowers,yes,Your friend points to something in the distance (not shown).,NA,0,subj,present,dandelion,25,flowers,NA,higher_degree,small,NA,English,female,16052,You and your friend are at a garden store and you see the following:,13,NA,flowers_present,It is small relative to other,2,NA,congruent,custom_main_text1,small,Your friend says: <br/><b>That small dandelion is a present.</b>
2956,What do you think your friend is saying it is big relative to?,images/sunflower_filler.png,images/flower-parade-basic_filler.png,42,filler,No,1,flowers,Barbara,NA,sunflowers,flowers,yes,Your friend points to something in the distance (not shown).,NA,0,pred,present,sunflower,25,sunflowers,NA,higher_degree,big,NA,English,female,5258,You and your friend see the following:,14,NA,flowers_present,It is big relative to other,2,NA,congruent,custom_main_text1,big,Your friend says: <br/><b>That's a big sunflower.</b>
2956,What do you think your friend is saying it is big relative to?,images/doberman_filler.png,images/dog-parade-basic_filler.png,42,filler,No,1,dogs1,Barbara,NA,dobermans,dogs,yes,Your friend points to something in the distance (not shown).,NA,0,subj,service animal,doberman,25,dobermans,NA,higher_degree,big,NA,English,female,7512,You and your friend see the following:,15,NA,dogs1_service,It is big relative to other,2,NA,congruent,custom_main_text1,big,Your friend says: <br/><b>That doberman is big.</b>
2956,What do you think your friend is saying it is small relative to?,images/stripmall-landmark.png,images/buildings-parade-basic.png,42,critical,No,1,buildings,Barbara,NA,strip malls,buildings,yes,Your friend points to something in the distance (not shown).,NA,0,subj,landmark,strip mall,25,buildings,NA,higher_degree,small,NA,English,female,10554,You visit your friend who lives in another city. You take a walk and you see the following:,16,NA,buildings_landmark,It is small relative to other,2,NA,congruent,custom_main_text1,small,Your friend says: <br/><b>That small strip mall is a landmark.</b>
2955,<i>What do you think Speaker A meant? </i>,NA,NA,42,NA,there were no glitches,1,NA,susan,1,NA,NA,yes,NA,"<b> Speaker A: ""The Empire State Building is tall.""</b>",NA,NA,NA,NA,18,tall\nbuildings,NA,graduated_high_school,NA,comp_class_warmup,english,female,NA,In the main trials you will be asked to rephrase something a person said. The utterance will contain a word that is <i>relative</i> and your task is to figure out what it is relative to. <br /> <br /> For example: <br />,1,1,NA,The Empire State Building is tall relative to other,2,"buildings, skyscrapers, houses, constructions (choose one)",NA,comp_class_warmup,NA,NA
2955,<i>What do you think Speaker A meant? </i>,NA,NA,42,NA,there were no glitches,1,NA,susan,1,NA,NA,yes,NA,"<b> Speaker A: ""The Empire State Building is tall.""</b>",NA,NA,NA,NA,18,tall\nbuildings,NA,graduated_high_school,NA,comp_class_warmup,english,female,NA,In the main trials you will be asked to rephrase something a person said. The utterance will contain a word that is <i>relative</i> and your task is to figure out what it is relative to. <br /> <br /> For example: <br />,1,2,NA,The Empire State Building is tall relative to other,2,"buildings, skyscrapers, houses, constructions (choose one)",NA,comp_class_warmup,NA,NA
2955,<i>What do you think Speaker A meant? </i>,NA,NA,42,NA,there were no glitches,1,NA,susan,1,NA,NA,yes,NA,"<b> Speaker A: ""The Empire State Building is tall.""</b>",NA,NA,NA,NA,18,tall\nbuildings,NA,graduated_high_school,NA,comp_class_warmup,english,female,NA,In the main trials you will be asked to rephrase something a person said. The utterance will contain a word that is <i>relative</i> and your task is to figure out what it is relative to. <br /> <br /> For example: <br />,1,3,NA,The Empire State Building is tall relative to other,2,"buildings, skyscrapers, houses, constructions (choose one)",NA,comp_class_warmup,NA,NA
2955,<i>What do you think Speaker A meant? </i>,NA,NA,42,NA,there were no glitches,1,NA,susan,1,NA,NA,yes,NA,"<b> Speaker A: ""The Empire State Building is tall.""</b>",NA,NA,NA,NA,18,buildings,NA,graduated_high_school,NA,comp_class_warmup,english,female,NA,In the main trials you will be asked to rephrase something a person said. The utterance will contain a word that is <i>relative</i> and your task is to figure out what it is relative to. <br /> <br /> For example: <br />,1,4,NA,The Empire State Building is tall relative to other,2,"buildings, skyscrapers, houses, constructions (choose one)",NA,comp_class_warmup,NA,NA
2955,What do you think your friend is saying it is small relative to?,images/hummingbird.png,images/bird-parade-basic.png,42,critical,there were no glitches,1,birds,susan,NA,hummingbirds,birds,yes,Your friend points to something in the distance (not shown).,NA,0,subj,rescue,hummingbird,18,birds,NA,graduated_high_school,small,NA,english,female,22494,You visit your friend who works at an animal shelter and you see the following:,1,NA,birds_rescue,It is small relative to other,2,NA,congruent,custom_main_text1,small,Your friend says: <br/><b>That small hummingbird is a rescue.</b>
2955,What do you think your friend is saying it is big relative to?,images/eagle_filler.png,images/bird-parade-basic_filler.png,42,filler,there were no glitches,1,birds,susan,NA,eagles,birds,yes,Your friend points to something in the distance (not shown).,NA,0,pred,rescue,eagle,18,eagles,NA,graduated_high_school,big,NA,english,female,14117,You and your friend see the following:,2,NA,birds_rescue,It is big relative to other,2,NA,congruent,custom_main_text1,big,Your friend says: <br/><b>That's a big eagle.</b>
2955,What do you think your friend is saying it is big relative to?,images/sunflower_filler.png,images/flower-parade-basic_filler.png,42,filler,there were no glitches,1,flowers,susan,NA,sunflowers,flowers,yes,Your friend points to something in the distance (not shown).,NA,0,subj,present,sunflower,18,sunflowers,NA,graduated_high_school,big,NA,english,female,16558,You and your friend see the following:,3,NA,flowers_present,It is big relative to other,2,NA,congruent,custom_main_text1,big,Your friend says: <br/><b>That sunflower is big.</b>
2955,What do you think your friend is saying it is small relative to?,images/dandelion.png,images/flower-parade-basic.png,42,critical,there were no glitches,1,flowers,susan,NA,dandelions,flowers,yes,Your friend points to something in the distance (not shown).,NA,0,pred,present,dandelion,18,dandelions,NA,graduated_high_school,small,NA,english,female,14386,You and your friend are at a garden store and you see the following:,4,NA,flowers_present,It is small relative to other,2,NA,congruent,custom_main_text1,small,Your friend says: <br/><b>That present is a small dandelion.</b>
2955,What do you think your friend is saying it is big relative to?,images/doberman_filler.png,images/dog-parade-basic_filler.png,42,filler,there were no glitches,1,dogs1,susan,NA,dobermans,dogs,yes,Your friend points to something in the distance (not shown).,NA,0,pred,service animal,doberman,18,dobermans,NA,graduated_high_school,big,NA,english,female,9391,You and your friend see the following:,5,NA,dogs1_service,It is big relative to other,2,NA,congruent,custom_main_text1,big,Your friend says: <br/><b>That's a big doberman.</b>
2955,What do you think your friend is saying it is small relative to?,images/bonsai_stick.png,images/tree-parade-basic.png,42,critical,there were no glitches,1,trees,susan,NA,bonsais,trees,yes,Your friend points to something in the distance (not shown).,NA,0,pred,landmark,bonsai,18,trees,NA,graduated_high_school,small,NA,english,female,18107,You and your friend walk to your friend's cabin in a park for the first time. You want to memorize the path and you see the following:,6,NA,trees_landmark,It is small relative to other,2,NA,congruent,custom_main_text1,small,Your friend says: <br/><b>That landmark is a small bonsai.</b>
2955,What do you think your friend is saying it is small relative to?,images/pug_filler.png,images/dog-parade-basic2_filler2.png,42,filler,there were no glitches,1,dogs2,susan,NA,pugs,dogs,yes,Your friend points to something in the distance (not shown).,NA,0,subj,stray,pug,18,dogs,NA,graduated_high_school,small,NA,english,female,12148,You and your friend see the following:,7,NA,dogs2_stray,It is small relative to other,2,NA,congruent,custom_main_text1,small,Your friend says: <br/><b>That pug is small.</b>
2955,What do you think your friend is saying it is big relative to?,images/tuna_net.png,images/fish-parade-basic.png,42,critical,there were no glitches,1,fish,susan,NA,tunas,fish,yes,Your friend points to something in the distance (not shown).,NA,0,subj,rescue,tuna,18,tunas,NA,graduated_high_school,big,NA,english,female,15676,You visit your friend who works as a marine biologist and you see the following:,8,NA,fish_rescue,It is big relative to other,2,NA,congruent,custom_main_text1,big,Your friend says: <br/><b>That big tuna is a rescue.</b>
2955,What do you think your friend is saying it is big relative to?,images/great-dane.png,images/dog-parade-basic2.png,42,critical,there were no glitches,1,dogs2,susan,NA,Great Danes,dogs,yes,Your friend points to something in the distance (not shown).,NA,0,pred,prize-winner,Great Dane,18,dogs,NA,graduated_high_school,big,NA,english,female,10414,You and your friend are at a pet show and you see the following:,9,NA,dogs2_prize,It is big relative to other,2,NA,congruent,custom_main_text1,big,Your friend says: <br/><b>That prize-winner is a big Great Dane.</b>
2955,What do you think your friend is saying it is big relative to?,images/redwood_filler.png,images/tree-parade-basic_filler.png,42,filler,there were no glitches,1,trees,susan,NA,redwoods,trees,yes,Your friend points to something in the distance (not shown).,NA,0,subj,landmark,redwood,18,trees,NA,graduated_high_school,big,NA,english,female,12896,You and your friend see the following:,10,NA,trees_landmark,It is big relative to other,2,NA,congruent,custom_main_text1,big,Your friend says: <br/><b>That redwood is big.</b>
2955,What do you think your friend is saying it is big relative to?,images/great-dane-gift.png,images/dog-parade-basic2_stray_wLeash.png,42,critical,there were no glitches,1,dogs2,susan,NA,Great Danes,dogs,yes,Your friend points to something in the distance (not shown).,NA,0,pred,stray,Great Dane,18,Great,NA,graduated_high_school,big,NA,english,female,15966,You and your friend take a walk in the city park and you see the following:,11,NA,dogs2_stray,It is big relative to other,2,NA,congruent,custom_main_text1,big,Your friend says: <br/><b>That stray is a big Great Dane.</b>
2955,What do you think your friend is saying it is small relative to?,images/chihuahua.png,images/dog-parade-basic.png,42,critical,there were no glitches,1,dogs1,susan,NA,chihuahuas,dogs,yes,Your friend points to something in the distance (not shown).,NA,0,subj,service animal,chihuahua,18,chihuahuas,NA,graduated_high_school,small,NA,english,female,16246,You and your friend are at an animal training ground and you see the following:,12,NA,dogs1_service,It is small relative to other,2,NA,congruent,custom_main_text1,small,Your friend says: <br/><b>That small chihuahua is a service animal.</b>
2955,What do you think your friend is saying it is small relative to?,images/clownfish_filler.png,images/fish-parade-basic_filler.png,42,filler,there were no glitches,1,fish,susan,NA,clownfish,fish,yes,Your friend points to something in the distance (not shown).,NA,0,pred,rescue,clownfish,18,clownfish,NA,graduated_high_school,small,NA,english,female,10595,You and your friend see the following:,13,NA,fish_rescue,It is small relative to other,2,NA,congruent,custom_main_text1,small,Your friend says: <br/><b>That's a small clownfish.</b>
2955,What do you think your friend is saying it is small relative to?,images/pug_filler.png,images/dog-parade-basic2_filler.png,42,filler,there were no glitches,1,dogs2,susan,NA,pugs,dogs,yes,Your friend points to something in the distance (not shown).,NA,0,subj,prize-winner,pug,18,pugs,NA,graduated_high_school,small,NA,english,female,6546,You and your friend see the following:,14,NA,dogs2_prize,It is small relative to other,2,NA,congruent,custom_main_text1,small,Your friend says: <br/><b>That pug is small.</b>
2955,What do you think your friend is saying it is small relative to?,images/stripmall-landmark-filler.png,images/buildings-parade-basic_filler.png,42,filler,there were no glitches,1,buildings,susan,NA,strip malls,buildings,yes,Your friend points to something in the distance (not shown).,NA,0,pred,landmark,strip mall,18,buildings,NA,graduated_high_school,small,NA,english,female,15660,You and your friend see the following:,15,NA,buildings_landmark,It is small relative to other,2,NA,congruent,custom_main_text1,small,Your friend says: <br/><b>That's a small strip mall.</b>
2955,What do you think your friend is saying it is big relative to?,images/skyscraper-landmark.png,images/buildings-parade-basic.png,42,critical,there were no glitches,1,buildings,susan,NA,skyscrapers,buildings,yes,Your friend points to something in the distance (not shown).,NA,0,subj,landmark,skyscraper,18,buildings,NA,graduated_high_school,big,NA,english,female,13578,You visit your friend who lives in another city. You take a walk and you see the following:,16,NA,buildings_landmark,It is big relative to other,2,NA,congruent,custom_main_text1,big,Your friend says: <br/><b>That big skyscraper is a landmark.</b>
2954,<i>What do you think Speaker A meant? </i>,NA,NA,42,NA,No,2,NA,barbara,1,NA,NA,yes,NA,"<b> Speaker A: ""The Empire State Building is tall.""</b>",NA,NA,NA,NA,23,Buildings,NA,NA,NA,comp_class_warmup,English,male,NA,In the main trials you will be asked to rephrase something a person said. The utterance will contain a word that is <i>relative</i> and your task is to figure out what it is relative to. <br /> <br /> For example: <br />,1,1,NA,The Empire State Building is tall relative to other,NA,"buildings, skyscrapers, houses, constructions (choose one)",NA,comp_class_warmup,NA,NA
2954,What do you think your friend is saying it is big relative to?,images/great-dane_filler.png,images/dog-parade-basic2_filler2.png,42,filler,No,2,dogs2,barbara,NA,Great Danes,dogs,yes,Your friend points to something in the distance (not shown).,NA,0,subj,stray,Great Dane,23,dogs,NA,NA,big,NA,English,male,16394,You and your friend see the following:,1,NA,dogs2_stray,It is big relative to other,NA,NA,congruent,custom_main_text1,big,Your friend says: <br/><b>That Great Dane is big.</b>
2954,What do you think your friend is saying it is small relative to?,images/bonsai_filler.png,images/tree-parade-basic_filler.png,42,filler,No,2,trees,barbara,NA,bonsais,trees,yes,Your friend points to something in the distance (not shown).,NA,0,pred,landmark,bonsai,23,trees,NA,NA,small,NA,English,male,16050,You and your friend see the following:,2,NA,trees_landmark,It is small relative to other,NA,NA,congruent,custom_main_text1,small,Your friend says: <br/><b>That's a small bonsai.</b>
2954,What do you think your friend is saying it is small relative to?,images/dandelion_filler.png,images/flower-parade-basic_filler.png,42,filler,No,2,flowers,barbara,NA,dandelions,flowers,yes,Your friend points to something in the distance (not shown).,NA,0,subj,landmark,dandelion,23,dandelions,NA,NA,small,NA,English,male,21117,You and your friend see the following:,3,NA,flowers_landmark,It is small relative to other,NA,NA,congruent,custom_main_text1,small,Your friend says: <br/><b>That dandelion is small.</b>
2954,What do you think your friend is saying it is small relative to?,images/chihuahua.png,images/dog-parade-basic.png,42,critical,No,2,dogs1,barbara,NA,chihuahuas,dogs,yes,Your friend points to something in the distance (not shown).,NA,0,subj,service animal,chihuahua,23,chihuahuas,NA,NA,small,NA,English,male,19420,You and your friend are at an animal training ground and you see the following:,4,NA,dogs1_service,It is small relative to other,NA,NA,congruent,custom_main_text1,small,Your friend says: <br/><b>That small chihuahua is a service animal.</b>
2954,What do you think your friend is saying it is big relative to?,images/doberman_filler.png,images/dog-parade-basic_filler.png,42,filler,No,2,dogs1,barbara,NA,dobermans,dogs,yes,Your friend points to something in the distance (not shown).,NA,0,pred,service animal,doberman,23,dobermans,NA,NA,big,NA,English,male,9101,You and your friend see the following:,5,NA,dogs1_service,It is big relative to other,NA,NA,congruent,custom_main_text1,big,Your friend says: <br/><b>That's a big doberman.</b>
2954,What do you think your friend is saying it is big relative to?,images/redwood_sign.png,images/tree-parade-basic.png,42,critical,No,2,trees,barbara,NA,redwoods,trees,yes,Your friend points to something in the distance (not shown).,NA,0,subj,landmark,redwood,23,redwoods,NA,NA,big,NA,English,male,13853,You and your friend walk to your friend's cabin in a park for the first time. You want to memorize the path and you see the following:,6,NA,trees_landmark,It is big relative to other,NA,NA,congruent,custom_main_text1,big,Your friend says: <br/><b>That big redwood is a landmark.</b>
2954,What do you think your friend is saying it is big relative to?,images/skyscraper-landmark-filler.png,images/buildings-parade-basic_filler.png,42,filler,No,2,buildings,barbara,NA,skyscrapers,buildings,yes,Your friend points to something in the distance (not shown).,NA,0,pred,landmark,skyscraper,23,skyscrapers,NA,NA,big,NA,English,male,8082,You and your friend see the following:,7,NA,buildings_landmark,It is big relative to other,NA,NA,congruent,custom_main_text1,big,Your friend says: <br/><b>That's a big skyscraper.</b>
2954,What do you think your friend is saying it is small relative to?,images/pug-gift.png,images/dog-parade-basic2_stray_wLeash.png,42,critical,No,2,dogs2,barbara,NA,pugs,dogs,yes,Your friend points to something in the distance (not shown).,NA,0,pred,stray,pug,23,pugs,NA,NA,small,NA,English,male,14769,You and your friend take a walk in the city park and you see the following:,8,NA,dogs2_stray,It is small relative to other,NA,NA,congruent,custom_main_text1,small,Your friend says: <br/><b>That stray is a small pug.</b>
2954,What do you think your friend is saying it is big relative to?,images/sunflower.png,images/flower-parade-basic.png,42,critical,No,2,flowers,barbara,NA,sunflowers,flowers,yes,Your friend points to something in the distance (not shown).,NA,0,subj,present,sunflower,23,flowers,NA,NA,big,NA,English,male,19584,You and your friend are at a garden store and you see the following:,9,NA,flowers_present,It is big relative to other,NA,NA,congruent,custom_main_text1,big,Your friend says: <br/><b>That big sunflower is a present.</b>
2954,What do you think your friend is saying it is big relative to?,images/eagle_filler.png,images/bird-parade-basic_filler.png,42,filler,No,2,birds,barbara,NA,eagles,birds,yes,Your friend points to something in the distance (not shown).,NA,0,subj,rescue,eagle,23,eagles,NA,NA,big,NA,English,male,9651,You and your friend see the following:,10,NA,birds_rescue,It is big relative to other,NA,NA,congruent,custom_main_text1,big,Your friend says: <br/><b>That eagle is big.</b>
2954,What do you think your friend is saying it is big relative to?,images/doberman-rescue.png,images/dog-parade-basic-rescue.png,42,critical,No,2,dogs1,barbara,NA,dobermans,dogs,yes,Your friend points to something in the distance (not shown).,NA,0,pred,rescue,doberman,23,dobermans,NA,NA,big,NA,English,male,10434,You visit your friend who works at an animal shelter and you see the following:,11,NA,dogs1_rescue,It is big relative to other,NA,NA,congruent,custom_main_text1,big,Your friend says: <br/><b>That rescue is a big doberman.</b>
2954,What do you think your friend is saying it is small relative to?,images/chihuahua_filler.png,images/dog-parade-basic_filler.png,42,filler,No,2,dogs1,barbara,NA,chihuahuas,dogs,yes,Your friend points to something in the distance (not shown).,NA,0,subj,rescue,chihuahua,23,chihuahuas,NA,NA,small,NA,English,male,8634,You and your friend see the following:,12,NA,dogs1_rescue,It is small relative to other,NA,NA,congruent,custom_main_text1,small,Your friend says: <br/><b>That chihuahua is small.</b>
2954,What do you think your friend is saying it is small relative to?,images/hummingbird.png,images/bird-parade-basic.png,42,critical,No,2,birds,barbara,NA,hummingbirds,birds,yes,Your friend points to something in the distance (not shown).,NA,0,pred,rescue,hummingbird,23,hummingbirds,NA,NA,small,NA,English,male,8368,You visit your friend who works at an animal shelter and you see the following:,13,NA,birds_rescue,It is small relative to other,NA,NA,congruent,custom_main_text1,small,Your friend says: <br/><b>That rescue is a small hummingbird.</b>
2954,What do you think your friend is saying it is small relative to?,images/stripmall-landmark.png,images/buildings-parade-basic.png,42,critical,No,2,buildings,barbara,NA,strip malls,buildings,yes,Your friend points to something in the distance (not shown).,NA,0,subj,landmark,strip mall,23,strip,NA,NA,small,NA,English,male,13087,You visit your friend who lives in another city. You take a walk and you see the following:,14,NA,buildings_landmark,It is small relative to other,NA,NA,congruent,custom_main_text1,small,Your friend says: <br/><b>That small strip mall is a landmark.</b>
2954,What do you think your friend is saying it is small relative to?,images/dandelion_filler.png,images/flower-parade-basic_filler.png,42,filler,No,2,flowers,barbara,NA,dandelions,flowers,yes,Your friend points to something in the distance (not shown).,NA,0,pred,present,dandelion,23,dandelions,NA,NA,small,NA,English,male,8398,You and your friend see the following:,15,NA,flowers_present,It is small relative to other,NA,NA,congruent,custom_main_text1,small,Your friend says: <br/><b>That's a small dandelion.</b>
2954,What do you think your friend is saying it is big relative to?,images/sunflower-landmark.png,images/flower-parade-basic-landmark.png,42,critical,No,2,flowers,barbara,NA,sunflowers,flowers,yes,Your friend points to something in the distance (not shown).,NA,0,pred,landmark,sunflower,23,flowers,NA,NA,big,NA,English,male,13923,You and your friend walk to a cabin you are renting for the weekend for the first time. You go along the path and you see the following:,16,NA,flowers_landmark,It is big relative to other,NA,NA,congruent,custom_main_text1,big,Your friend says: <br/><b>That landmark is a big sunflower.</b>
2953,<i>What do you think Speaker A meant? </i>,NA,NA,42,NA,NA,1,NA,jessica,1,NA,NA,yes,NA,"<b> Speaker A: ""The Empire State Building is tall.""</b>",NA,NA,NA,NA,24,buildings,NA,graduated_college,NA,comp_class_warmup,English,female,NA,In the main trials you will be asked to rephrase something a person said. The utterance will contain a word that is <i>relative</i> and your task is to figure out what it is relative to. <br /> <br /> For example: <br />,1,1,NA,The Empire State Building is tall relative to other,1.1,"buildings, skyscrapers, houses, constructions (choose one)",NA,comp_class_warmup,NA,NA
2953,What do you think your friend is saying it is small relative to?,images/chihuahua.png,images/dog-parade-basic.png,42,critical,NA,1,dogs1,jessica,NA,chihuahuas,dogs,yes,Your friend points to something in the distance (not shown).,NA,0,pred,service animal,chihuahua,24,dogs,NA,graduated_college,small,NA,English,female,14372,You and your friend are at an animal training ground and you see the following:,1,NA,dogs1_service,It is small relative to other,1.1,NA,congruent,custom_main_text1,small,Your friend says: <br/><b>That service animal is a small chihuahua.</b>
2953,What do you think your friend is saying it is small relative to?,images/pug_filler.png,images/dog-parade-basic2_filler.png,42,filler,NA,1,dogs2,jessica,NA,pugs,dogs,yes,Your friend points to something in the distance (not shown).,NA,0,subj,prize-winner,pug,24,pugs,NA,graduated_college,small,NA,English,female,13234,You and your friend see the following:,2,NA,dogs2_prize,It is small relative to other,1.1,NA,congruent,custom_main_text1,small,Your friend says: <br/><b>That pug is small.</b>
2953,What do you think your friend is saying it is big relative to?,images/great-dane.png,images/dog-parade-basic2.png,42,critical,NA,1,dogs2,jessica,NA,Great Danes,dogs,yes,Your friend points to something in the distance (not shown).,NA,0,pred,prize-winner,Great Dane,24,Great,NA,graduated_college,big,NA,English,female,13005,You and your friend are at a pet show and you see the following:,3,NA,dogs2_prize,It is big relative to other,1.1,NA,congruent,custom_main_text1,big,Your friend says: <br/><b>That prize-winner is a big Great Dane.</b>
2953,What do you think your friend is saying it is big relative to?,images/eagle_filler.png,images/bird-parade-basic_filler.png,42,filler,NA,1,birds,jessica,NA,eagles,birds,yes,Your friend points to something in the distance (not shown).,NA,0,pred,rescue,eagle,24,eagles,NA,graduated_college,big,NA,English,female,8400,You and your friend see the following:,4,NA,birds_rescue,It is big relative to other,1.1,NA,congruent,custom_main_text1,big,Your friend says: <br/><b>That's a big eagle.</b>
2953,What do you think your friend is saying it is small relative to?,images/stripmall-landmark.png,images/buildings-parade-basic.png,42,critical,NA,1,buildings,jessica,NA,strip malls,buildings,yes,Your friend points to something in the distance (not shown).,NA,0,pred,landmark,strip mall,24,buildings,NA,graduated_college,small,NA,English,female,8982,You visit your friend who lives in another city. You take a walk and you see the following:,5,NA,buildings_landmark,It is small relative to other,1.1,NA,congruent,custom_main_text1,small,Your friend says: <br/><b>That landmark is a small strip mall.</b>
2953,What do you think your friend is saying it is big relative to?,images/doberman_filler.png,images/dog-parade-basic_filler.png,42,filler,NA,1,dogs1,jessica,NA,dobermans,dogs,yes,Your friend points to something in the distance (not shown).,NA,0,subj,service animal,doberman,24,dobermans,NA,graduated_college,big,NA,English,female,6897,You and your friend see the following:,6,NA,dogs1_service,It is big relative to other,1.1,NA,congruent,custom_main_text1,big,Your friend says: <br/><b>That doberman is big.</b>
2953,What do you think your friend is saying it is big relative to?,images/doberman-rescue.png,images/dog-parade-basic-rescue.png,42,critical,NA,1,dogs1,jessica,NA,dobermans,dogs,yes,Your friend points to something in the distance (not shown).,NA,0,subj,rescue,doberman,24,dogs,NA,graduated_college,big,NA,English,female,8234,You visit your friend who works at an animal shelter and you see the following:,7,NA,dogs1_rescue,It is big relative to other,1.1,NA,congruent,custom_main_text1,big,Your friend says: <br/><b>That big doberman is a rescue.</b>
2953,What do you think your friend is saying it is small relative to?,images/dandelion_filler.png,images/flower-parade-basic_filler.png,42,filler,NA,1,flowers,jessica,NA,dandelions,flowers,yes,Your friend points to something in the distance (not shown).,NA,0,pred,landmark,dandelion,24,dandelions,NA,graduated_college,small,NA,English,female,14101,You and your friend see the following:,8,NA,flowers_landmark,It is small relative to other,1.1,NA,congruent,custom_main_text1,small,Your friend says: <br/><b>That's a small dandelion.</b>
2953,What do you think your friend is saying it is big relative to?,images/sunflower-landmark.png,images/flower-parade-basic-landmark.png,42,critical,NA,1,flowers,jessica,NA,sunflowers,flowers,yes,Your friend points to something in the distance (not shown).,NA,0,subj,landmark,sunflower,24,sunflowers,NA,graduated_college,big,NA,English,female,6530,You and your friend walk to a cabin you are renting for the weekend for the first time. You go along the path and you see the following:,9,NA,flowers_landmark,It is big relative to other,1.1,NA,congruent,custom_main_text1,big,Your friend says: <br/><b>That big sunflower is a landmark.</b>
2953,What do you think your friend is saying it is big relative to?,images/sunflower.png,images/flower-parade-basic.png,42,critical,NA,1,flowers,jessica,NA,sunflowers,flowers,yes,Your friend points to something in the distance (not shown).,NA,0,pred,present,sunflower,24,flowers,NA,graduated_college,big,NA,English,female,5600,You and your friend are at a garden store and you see the following:,10,NA,flowers_present,It is big relative to other,1.1,NA,congruent,custom_main_text1,big,Your friend says: <br/><b>That present is a big sunflower.</b>
2953,What do you think your friend is saying it is big relative to?,images/skyscraper-landmark-filler.png,images/buildings-parade-basic_filler.png,42,filler,NA,1,buildings,jessica,NA,skyscrapers,buildings,yes,Your friend points to something in the distance (not shown).,NA,0,subj,landmark,skyscraper,24,skyscrapers,NA,graduated_college,big,NA,English,female,4561,You and your friend see the following:,11,NA,buildings_landmark,It is big relative to other,1.1,NA,congruent,custom_main_text1,big,Your friend says: <br/><b>That skyscraper is big.</b>
2953,What do you think your friend is saying it is big relative to?,images/great-dane_filler.png,images/dog-parade-basic2_filler2.png,42,filler,NA,1,dogs2,jessica,NA,Great Danes,dogs,yes,Your friend points to something in the distance (not shown).,NA,0,pred,stray,Great Dane,24,Great,NA,graduated_college,big,NA,English,female,7089,You and your friend see the following:,12,NA,dogs2_stray,It is big relative to other,1.1,NA,congruent,custom_main_text1,big,Your friend says: <br/><b>That's a big Great Dane.</b>
2953,What do you think your friend is saying it is small relative to?,images/hummingbird.png,images/bird-parade-basic.png,42,critical,NA,1,birds,jessica,NA,hummingbirds,birds,yes,Your friend points to something in the distance (not shown).,NA,0,subj,rescue,hummingbird,24,birds,NA,graduated_college,small,NA,English,female,7554,You visit your friend who works at an animal shelter and you see the following:,13,NA,birds_rescue,It is small relative to other,1.1,NA,congruent,custom_main_text1,small,Your friend says: <br/><b>That small hummingbird is a rescue.</b>
2953,What do you think your friend is saying it is small relative to?,images/chihuahua_filler.png,images/dog-parade-basic_filler.png,42,filler,NA,1,dogs1,jessica,NA,chihuahuas,dogs,yes,Your friend points to something in the distance (not shown).,NA,0,pred,rescue,chihuahua,24,chihuahuas,NA,graduated_college,small,NA,English,female,3449,You and your friend see the following:,14,NA,dogs1_rescue,It is small relative to other,1.1,NA,congruent,custom_main_text1,small,Your friend says: <br/><b>That's a small chihuahua.</b>
2953,What do you think your friend is saying it is small relative to?,images/pug-gift.png,images/dog-parade-basic2_stray_wLeash.png,42,critical,NA,1,dogs2,jessica,NA,pugs,dogs,yes,Your friend points to something in the distance (not shown).,NA,0,subj,stray,pug,24,dogs,NA,graduated_college,small,NA,English,female,4909,You and your friend take a walk in the city park and you see the following:,15,NA,dogs2_stray,It is small relative to other,1.1,NA,congruent,custom_main_text1,small,Your friend says: <br/><b>That small pug is a stray.</b>
2953,What do you think your friend is saying it is small relative to?,images/dandelion_filler.png,images/flower-parade-basic_filler.png,42,filler,NA,1,flowers,jessica,NA,dandelions,flowers,yes,Your friend points to something in the distance (not shown).,NA,0,subj,present,dandelion,24,dandelions,NA,graduated_college,small,NA,English,female,5176,You and your friend see the following:,16,NA,flowers_present,It is small relative to other,1.1,NA,congruent,custom_main_text1,small,Your friend says: <br/><b>That dandelion is small.</b>
2952,<i>What do you think Speaker A meant? </i>,NA,NA,42,NA,No,1,NA,Elizabeth,1,NA,NA,NA,NA,"<b> Speaker A: ""The Empire State Building is tall.""</b>",NA,NA,NA,NA,NA,short,NA,graduated_high_school,NA,comp_class_warmup,English,female,NA,In the main trials you will be asked to rephrase something a person said. The utterance will contain a word that is <i>relative</i> and your task is to figure out what it is relative to. <br /> <br /> For example: <br />,1,1,NA,The Empire State Building is tall relative to other,1,"buildings, skyscrapers, houses, constructions (choose one)",NA,comp_class_warmup,NA,NA
2952,<i>What do you think Speaker A meant? </i>,NA,NA,42,NA,No,1,NA,Elizabeth,1,NA,NA,NA,NA,"<b> Speaker A: ""The Empire State Building is tall.""</b>",NA,NA,NA,NA,NA,buildings,NA,graduated_high_school,NA,comp_class_warmup,English,female,NA,In the main trials you will be asked to rephrase something a person said. The utterance will contain a word that is <i>relative</i> and your task is to figure out what it is relative to. <br /> <br /> For example: <br />,1,2,NA,The Empire State Building is tall relative to other,1,"buildings, skyscrapers, houses, constructions (choose one)",NA,comp_class_warmup,NA,NA
2952,What do you think your friend is saying it is small relative to?,images/stripmall-landmark.png,images/buildings-parade-basic.png,42,critical,No,1,buildings,Elizabeth,NA,strip malls,buildings,NA,Your friend points to something in the distance (not shown).,NA,0,subj,landmark,strip mall,NA,buildings,NA,graduated_high_school,small,NA,English,female,16313,You visit your friend who lives in another city. You take a walk and you see the following:,1,NA,buildings_landmark,It is small relative to other,1,NA,congruent,custom_main_text1,small,Your friend says: <br/><b>That small strip mall is a landmark.</b>
2952,What do you think your friend is saying it is big relative to?,images/great-dane.png,images/dog-parade-basic2.png,42,critical,No,1,dogs2,Elizabeth,NA,Great Danes,dogs,NA,Your friend points to something in the distance (not shown).,NA,0,pred,prize-winner,Great Dane,NA,dogs,NA,graduated_high_school,big,NA,English,female,10563,You and your friend are at a pet show and you see the following:,2,NA,dogs2_prize,It is big relative to other,1,NA,congruent,custom_main_text1,big,Your friend says: <br/><b>That prize-winner is a big Great Dane.</b>
2952,What do you think your friend is saying it is big relative to?,images/redwood_filler.png,images/tree-parade-basic_filler.png,42,filler,No,1,trees,Elizabeth,NA,redwoods,trees,NA,Your friend points to something in the distance (not shown).,NA,0,subj,landmark,redwood,NA,trees,NA,graduated_high_school,big,NA,English,female,7311,You and your friend see the following:,3,NA,trees_landmark,It is big relative to other,1,NA,congruent,custom_main_text1,big,Your friend says: <br/><b>That redwood is big.</b>
2952,What do you think your friend is saying it is small relative to?,images/chihuahua_filler.png,images/dog-parade-basic_filler.png,42,filler,No,1,dogs1,Elizabeth,NA,chihuahuas,dogs,NA,Your friend points to something in the distance (not shown).,NA,0,pred,service animal,chihuahua,NA,dogs,NA,graduated_high_school,small,NA,English,female,5401,You and your friend see the following:,4,NA,dogs1_service,It is small relative to other,1,NA,congruent,custom_main_text1,small,Your friend says: <br/><b>That's a small chihuahua.</b>
2952,What do you think your friend is saying it is big relative to?,images/great-dane-gift.png,images/dog-parade-basic2_stray_wLeash.png,42,critical,No,1,dogs2,Elizabeth,NA,Great Danes,dogs,NA,Your friend points to something in the distance (not shown).,NA,0,subj,stray,Great Dane,NA,Great,NA,graduated_high_school,big,NA,English,female,9782,You and your friend take a walk in the city park and you see the following:,5,NA,dogs2_stray,It is big relative to other,1,NA,congruent,custom_main_text1,big,Your friend says: <br/><b>That big Great Dane is a stray.</b>
2952,What do you think your friend is saying it is small relative to?,images/pug_filler.png,images/dog-parade-basic2_filler.png,42,filler,No,1,dogs2,Elizabeth,NA,pugs,dogs,NA,Your friend points to something in the distance (not shown).,NA,0,subj,prize-winner,pug,NA,dogs,NA,graduated_high_school,small,NA,English,female,6877,You and your friend see the following:,6,NA,dogs2_prize,It is small relative to other,1,NA,congruent,custom_main_text1,small,Your friend says: <br/><b>That pug is small.</b>
2952,What do you think your friend is saying it is small relative to?,images/dandelion-landmark.png,images/flower-parade-basic-landmark.png,42,critical,No,1,flowers,Elizabeth,NA,dandelions,flowers,NA,Your friend points to something in the distance (not shown).,NA,0,subj,landmark,dandelion,NA,flowers,NA,graduated_high_school,small,NA,English,female,21368,You and your friend walk to a cabin you are renting for the weekend for the first time. You go along the path and you see the following:,7,NA,flowers_landmark,It is small relative to other,1,NA,congruent,custom_main_text1,small,Your friend says: <br/><b>That small dandelion is a landmark.</b>
2952,What do you think your friend is saying it is small relative to?,images/chihuahua-rescue.png,images/dog-parade-basic-rescue.png,42,critical,No,1,dogs1,Elizabeth,NA,chihuahuas,dogs,NA,Your friend points to something in the distance (not shown).,NA,0,pred,rescue,chihuahua,NA,dogs,NA,graduated_high_school,small,NA,English,female,21561,You visit your friend who works at an animal shelter and you see the following:,8,NA,dogs1_rescue,It is small relative to other,1,NA,congruent,custom_main_text1,small,Your friend says: <br/><b>That rescue is a small chihuahua.</b>
2952,What do you think your friend is saying it is big relative to?,images/sunflower_filler.png,images/flower-parade-basic_filler.png,42,filler,No,1,flowers,Elizabeth,NA,sunflowers,flowers,NA,Your friend points to something in the distance (not shown).,NA,0,pred,landmark,sunflower,NA,flowers,NA,graduated_high_school,big,NA,English,female,7968,You and your friend see the following:,9,NA,flowers_landmark,It is big relative to other,1,NA,congruent,custom_main_text1,big,Your friend says: <br/><b>That's a big sunflower.</b>
2952,What do you think your friend is saying it is big relative to?,images/doberman_filler.png,images/dog-parade-basic_filler.png,42,filler,No,1,dogs1,Elizabeth,NA,dobermans,dogs,NA,Your friend points to something in the distance (not shown).,NA,0,subj,rescue,doberman,NA,dogs,NA,graduated_high_school,big,NA,English,female,7367,You and your friend see the following:,10,NA,dogs1_rescue,It is big relative to other,1,NA,congruent,custom_main_text1,big,Your friend says: <br/><b>That doberman is big.</b>
2952,What do you think your friend is saying it is big relative to?,images/doberman.png,images/dog-parade-basic.png,42,critical,No,1,dogs1,Elizabeth,NA,dobermans,dogs,NA,Your friend points to something in the distance (not shown).,NA,0,subj,service animal,doberman,NA,dobermans,NA,graduated_high_school,big,NA,English,female,7351,You and your friend are at an animal training ground and you see the following:,11,NA,dogs1_service,It is big relative to other,1,NA,congruent,custom_main_text1,big,Your friend says: <br/><b>That big doberman is a service animal.</b>
2952,What do you think your friend is saying it is big relative to?,images/sunflower.png,images/flower-parade-basic.png,42,critical,No,1,flowers,Elizabeth,NA,sunflowers,flowers,NA,Your friend points to something in the distance (not shown).,NA,0,pred,present,sunflower,NA,flowers,NA,graduated_high_school,big,NA,English,female,18447,You and your friend are at a garden store and you see the following:,12,NA,flowers_present,It is big relative to other,1,NA,congruent,custom_main_text1,big,Your friend says: <br/><b>That present is a big sunflower.</b>
2952,What do you think your friend is saying it is small relative to?,images/dandelion_filler.png,images/flower-parade-basic_filler.png,42,filler,No,1,flowers,Elizabeth,NA,dandelions,flowers,NA,Your friend points to something in the distance (not shown).,NA,0,subj,present,dandelion,NA,flowers,NA,graduated_high_school,small,NA,English,female,5165,You and your friend see the following:,13,NA,flowers_present,It is small relative to other,1,NA,congruent,custom_main_text1,small,Your friend says: <br/><b>That dandelion is small.</b>
2952,What do you think your friend is saying it is small relative to?,images/pug_filler.png,images/dog-parade-basic2_filler2.png,42,filler,No,1,dogs2,Elizabeth,NA,pugs,dogs,NA,Your friend points to something in the distance (not shown).,NA,0,pred,stray,pug,NA,dogs,NA,graduated_high_school,small,NA,English,female,6559,You and your friend see the following:,14,NA,dogs2_stray,It is small relative to other,1,NA,congruent,custom_main_text1,small,Your friend says: <br/><b>That's a small pug.</b>
2952,What do you think your friend is saying it is small relative to?,images/bonsai_stick.png,images/tree-parade-basic.png,42,critical,No,1,trees,Elizabeth,NA,bonsais,trees,NA,Your friend points to something in the distance (not shown).,NA,0,pred,landmark,bonsai,NA,trees,NA,graduated_high_school,small,NA,English,female,19306,You and your friend walk to your friend's cabin in a park for the first time. You want to memorize the path and you see the following:,15,NA,trees_landmark,It is small relative to other,1,NA,congruent,custom_main_text1,small,Your friend says: <br/><b>That landmark is a small bonsai.</b>
2952,What do you think your friend is saying it is big relative to?,images/skyscraper-landmark-filler.png,images/buildings-parade-basic_filler.png,42,filler,No,1,buildings,Elizabeth,NA,skyscrapers,buildings,NA,Your friend points to something in the distance (not shown).,NA,0,pred,landmark,skyscraper,NA,buildings,NA,graduated_high_school,big,NA,English,female,9925,You and your friend see the following:,16,NA,buildings_landmark,It is big relative to other,1,NA,congruent,custom_main_text1,big,Your friend says: <br/><b>That's a big skyscraper.</b>
2951,<i>What do you think Speaker A meant? </i>,NA,NA,42,NA,No,2,NA,elizabeth,1,NA,NA,yes,NA,"<b> Speaker A: ""The Empire State Building is tall.""</b>",NA,NA,NA,NA,20,buildings,NA,some_college,NA,comp_class_warmup,English,female,NA,In the main trials you will be asked to rephrase something a person said. The utterance will contain a word that is <i>relative</i> and your task is to figure out what it is relative to. <br /> <br /> For example: <br />,1,1,NA,The Empire State Building is tall relative to other,1,"buildings, skyscrapers, houses, constructions (choose one)",NA,comp_class_warmup,NA,NA
2951,What do you think your friend is saying it is big relative to?,images/eagle_filler.png,images/bird-parade-basic_filler.png,42,filler,No,2,birds,elizabeth,NA,birds,eagles,yes,Your friend points to something in the distance (not shown).,NA,1,subj,rescue,eagle,20,birds,NA,some_college,big,NA,English,female,11426,You and your friend see the following:,1,NA,birds_rescue,It is big relative to other,1,NA,congruent,custom_main_text1,big,Your friend says: <br/><b>That eagle is big.</b>
2951,What do you think your friend is saying it is small relative to?,images/hummingbird.png,images/bird-parade-basic.png,42,critical,No,2,birds,elizabeth,NA,birds,hummingbirds,yes,Your friend points to something in the distance (not shown).,NA,1,pred,rescue,hummingbird,20,birds,NA,some_college,small,NA,English,female,7769,You visit your friend who works at an animal shelter and you see the following:,2,NA,birds_rescue,It is small relative to other,1,NA,congruent,custom_main_text1,small,Your friend says: <br/><b>That rescue is a small hummingbird.</b>
2951,What do you think your friend is saying it is small relative to?,images/clownfish_net.png,images/fish-parade-basic.png,42,critical,No,2,fish,elizabeth,NA,fish,clownfish,yes,Your friend points to something in the distance (not shown).,NA,1,subj,rescue,clownfish,20,fish,NA,some_college,small,NA,English,female,8728,You visit your friend who works as a marine biologist and you see the following:,3,NA,fish_rescue,It is small relative to other,1,NA,congruent,custom_main_text1,small,Your friend says: <br/><b>That small clownfish is a rescue.</b>
2951,What do you think your friend is saying it is big relative to?,images/doberman.png,images/dog-parade-basic.png,42,critical,No,2,dogs1,elizabeth,NA,dogs,dobermans,yes,Your friend points to something in the distance (not shown).,NA,1,pred,service animal,doberman,20,dogs,NA,some_college,big,NA,English,female,8715,You and your friend are at an animal training ground and you see the following:,4,NA,dogs1_service,It is big relative to other,1,NA,congruent,custom_main_text1,big,Your friend says: <br/><b>That service animal is a big doberman.</b>
2951,What do you think your friend is saying it is big relative to?,images/tuna_filler.png,images/fish-parade-basic_filler.png,42,filler,No,2,fish,elizabeth,NA,fish,tunas,yes,Your friend points to something in the distance (not shown).,NA,1,pred,rescue,tuna,20,tunas,NA,some_college,big,NA,English,female,18399,You and your friend see the following:,5,NA,fish_rescue,It is big relative to other,1,NA,congruent,custom_main_text1,big,Your friend says: <br/><b>That's a big tuna.</b>
2951,What do you think your friend is saying it is big relative to?,images/sunflower-landmark.png,images/flower-parade-basic-landmark.png,42,critical,No,2,flowers,elizabeth,NA,flowers,sunflowers,yes,Your friend points to something in the distance (not shown).,NA,1,subj,landmark,sunflower,20,sunflowers,NA,some_college,big,NA,English,female,15854,You and your friend walk to a cabin you are renting for the weekend for the first time. You go along the path and you see the following:,6,NA,flowers_landmark,It is big relative to other,1,NA,congruent,custom_main_text1,big,Your friend says: <br/><b>That big sunflower is a landmark.</b>
2951,What do you think your friend is saying it is small relative to?,images/dandelion_filler.png,images/flower-parade-basic_filler.png,42,filler,No,2,flowers,elizabeth,NA,flowers,dandelions,yes,Your friend points to something in the distance (not shown).,NA,1,pred,present,dandelion,20,flowers,NA,some_college,small,NA,English,female,6151,You and your friend see the following:,7,NA,flowers_present,It is small relative to other,1,NA,congruent,custom_main_text1,small,Your friend says: <br/><b>That's a small dandelion.</b>
2951,What do you think your friend is saying it is small relative to?,images/bonsai_stick.png,images/tree-parade-basic.png,42,critical,No,2,trees,elizabeth,NA,trees,bonsais,yes,Your friend points to something in the distance (not shown).,NA,1,subj,landmark,bonsai,20,trees,NA,some_college,small,NA,English,female,7363,You and your friend walk to your friend's cabin in a park for the first time. You want to memorize the path and you see the following:,8,NA,trees_landmark,It is small relative to other,1,NA,congruent,custom_main_text1,small,Your friend says: <br/><b>That small bonsai is a landmark.</b>
2951,What do you think your friend is saying it is small relative to?,images/chihuahua_filler.png,images/dog-parade-basic_filler.png,42,filler,No,2,dogs1,elizabeth,NA,dogs,chihuahuas,yes,Your friend points to something in the distance (not shown).,NA,1,subj,service animal,chihuahua,20,dogs,NA,some_college,small,NA,English,female,3875,You and your friend see the following:,9,NA,dogs1_service,It is small relative to other,1,NA,congruent,custom_main_text1,small,Your friend says: <br/><b>That chihuahua is small.</b>
2951,What do you think your friend is saying it is small relative to?,images/stripmall-landmark.png,images/buildings-parade-basic.png,42,critical,No,2,buildings,elizabeth,NA,buildings,strip malls,yes,Your friend points to something in the distance (not shown).,NA,1,pred,landmark,strip mall,20,buildings,NA,some_college,small,NA,English,female,6459,You visit your friend who lives in another city. You take a walk and you see the following:,10,NA,buildings_landmark,It is small relative to other,1,NA,congruent,custom_main_text1,small,Your friend says: <br/><b>That landmark is a small strip mall.</b>
2951,What do you think your friend is saying it is big relative to?,images/skyscraper-landmark-filler.png,images/buildings-parade-basic_filler.png,42,filler,No,2,buildings,elizabeth,NA,buildings,skyscrapers,yes,Your friend points to something in the distance (not shown).,NA,1,subj,landmark,skyscraper,20,buildings,NA,some_college,big,NA,English,female,7261,You and your friend see the following:,11,NA,buildings_landmark,It is big relative to other,1,NA,congruent,custom_main_text1,big,Your friend says: <br/><b>That skyscraper is big.</b>
2951,What do you think your friend is saying it is small relative to?,images/dandelion_filler.png,images/flower-parade-basic_filler.png,42,filler,No,2,flowers,elizabeth,NA,flowers,dandelions,yes,Your friend points to something in the distance (not shown).,NA,1,pred,landmark,dandelion,20,flowers,NA,some_college,small,NA,English,female,5705,You and your friend see the following:,12,NA,flowers_landmark,It is small relative to other,1,NA,congruent,custom_main_text1,small,Your friend says: <br/><b>That's a small dandelion.</b>
2951,What do you think your friend is saying it is big relative to?,images/great-dane.png,images/dog-parade-basic2.png,42,critical,No,2,dogs2,elizabeth,NA,dogs,Great Danes,yes,Your friend points to something in the distance (not shown).,NA,1,pred,prize-winner,Great Dane,20,Great,NA,some_college,big,NA,English,female,6073,You and your friend are at a pet show and you see the following:,13,NA,dogs2_prize,It is big relative to other,1,NA,congruent,custom_main_text1,big,Your friend says: <br/><b>That prize-winner is a big Great Dane.</b>
2951,What do you think your friend is saying it is small relative to?,images/pug_filler.png,images/dog-parade-basic2_filler.png,42,filler,No,2,dogs2,elizabeth,NA,dogs,pugs,yes,Your friend points to something in the distance (not shown).,NA,1,subj,prize-winner,pug,20,dogs,NA,some_college,small,NA,English,female,4429,You and your friend see the following:,14,NA,dogs2_prize,It is small relative to other,1,NA,congruent,custom_main_text1,small,Your friend says: <br/><b>That pug is small.</b>
2951,What do you think your friend is saying it is big relative to?,images/redwood_filler.png,images/tree-parade-basic_filler.png,42,filler,No,2,trees,elizabeth,NA,trees,redwoods,yes,Your friend points to something in the distance (not shown).,NA,1,pred,landmark,redwood,20,redwoods,NA,some_college,big,NA,English,female,5528,You and your friend see the following:,15,NA,trees_landmark,It is big relative to other,1,NA,congruent,custom_main_text1,big,Your friend says: <br/><b>That's a big redwood.</b>
2951,What do you think your friend is saying it is big relative to?,images/sunflower.png,images/flower-parade-basic.png,42,critical,No,2,flowers,elizabeth,NA,flowers,sunflowers,yes,Your friend points to something in the distance (not shown).,NA,1,subj,present,sunflower,20,sunflowers,NA,some_college,big,NA,English,female,6950,You and your friend are at a garden store and you see the following:,16,NA,flowers_present,It is big relative to other,1,NA,congruent,custom_main_text1,big,Your friend says: <br/><b>That big sunflower is a present.</b>
2950,<i>What do you think Speaker A meant? </i>,NA,NA,42,NA,no,1,NA,jennifer,1,NA,NA,yes,NA,"<b> Speaker A: ""The Empire State Building is tall.""</b>",NA,NA,NA,NA,25,buildings,NA,graduated_college,NA,comp_class_warmup,english,female,NA,In the main trials you will be asked to rephrase something a person said. The utterance will contain a word that is <i>relative</i> and your task is to figure out what it is relative to. <br /> <br /> For example: <br />,1,1,NA,The Empire State Building is tall relative to other,1.5,"buildings, skyscrapers, houses, constructions (choose one)",NA,comp_class_warmup,NA,NA
2950,What do you think your friend is saying it is small relative to?,images/hummingbird_filler.png,images/bird-parade-basic_filler.png,42,filler,no,1,birds,jennifer,NA,birds,hummingbirds,yes,Your friend points to something in the distance (not shown).,NA,1,subj,rescue,hummingbird,25,birds,NA,graduated_college,small,NA,english,female,8509,You and your friend see the following:,1,NA,birds_rescue,It is small relative to other,1.5,NA,congruent,custom_main_text1,small,Your friend says: <br/><b>That hummingbird is small.</b>
2950,What do you think your friend is saying it is big relative to?,images/redwood_filler.png,images/tree-parade-basic_filler.png,42,filler,no,1,trees,jennifer,NA,trees,redwoods,yes,Your friend points to something in the distance (not shown).,NA,1,pred,landmark,redwood,25,trees,NA,graduated_college,big,NA,english,female,8517,You and your friend see the following:,2,NA,trees_landmark,It is big relative to other,1.5,NA,congruent,custom_main_text1,big,Your friend says: <br/><b>That's a big redwood.</b>
2950,What do you think your friend is saying it is small relative to?,images/clownfish_net.png,images/fish-parade-basic.png,42,critical,no,1,fish,jennifer,NA,fish,clownfish,yes,Your friend points to something in the distance (not shown).,NA,1,subj,rescue,clownfish,25,fish,NA,graduated_college,small,NA,english,female,12116,You visit your friend who works as a marine biologist and you see the following:,3,NA,fish_rescue,It is small relative to other,1.5,NA,congruent,custom_main_text1,small,Your friend says: <br/><b>That small clownfish is a rescue.</b>
2950,What do you think your friend is saying it is small relative to?,images/pug_filler.png,images/dog-parade-basic2_filler2.png,42,filler,no,1,dogs2,jennifer,NA,dogs,pugs,yes,Your friend points to something in the distance (not shown).,NA,1,pred,stray,pug,25,dogs,NA,graduated_college,small,NA,english,female,8140,You and your friend see the following:,4,NA,dogs2_stray,It is small relative to other,1.5,NA,congruent,custom_main_text1,small,Your friend says: <br/><b>That's a small pug.</b>
2950,What do you think your friend is saying it is big relative to?,images/great-dane-gift.png,images/dog-parade-basic2_stray_wLeash.png,42,critical,no,1,dogs2,jennifer,NA,dogs,Great Danes,yes,Your friend points to something in the distance (not shown).,NA,1,subj,stray,Great Dane,25,dogs,NA,graduated_college,big,NA,english,female,9149,You and your friend take a walk in the city park and you see the following:,5,NA,dogs2_stray,It is big relative to other,1.5,NA,congruent,custom_main_text1,big,Your friend says: <br/><b>That big Great Dane is a stray.</b>
2950,What do you think your friend is saying it is small relative to?,images/chihuahua-rescue.png,images/dog-parade-basic-rescue.png,42,critical,no,1,dogs1,jennifer,NA,dogs,chihuahuas,yes,Your friend points to something in the distance (not shown).,NA,1,pred,rescue,chihuahua,25,chihuahuas,NA,graduated_college,small,NA,english,female,6817,You visit your friend who works at an animal shelter and you see the following:,6,NA,dogs1_rescue,It is small relative to other,1.5,NA,congruent,custom_main_text1,small,Your friend says: <br/><b>That rescue is a small chihuahua.</b>
2950,What do you think your friend is saying it is small relative to?,images/pug_filler.png,images/dog-parade-basic2_filler.png,42,filler,no,1,dogs2,jennifer,NA,dogs,pugs,yes,Your friend points to something in the distance (not shown).,NA,1,pred,prize-winner,pug,25,pugs,NA,graduated_college,small,NA,english,female,9925,You and your friend see the following:,7,NA,dogs2_prize,It is small relative to other,1.5,NA,congruent,custom_main_text1,small,Your friend says: <br/><b>That's a small pug.</b>
2950,What do you think your friend is saying it is big relative to?,images/sunflower.png,images/flower-parade-basic.png,42,critical,no,1,flowers,jennifer,NA,flowers,sunflowers,yes,Your friend points to something in the distance (not shown).,NA,1,pred,present,sunflower,25,sunflowers,NA,graduated_college,big,NA,english,female,7823,You and your friend are at a garden store and you see the following:,8,NA,flowers_present,It is big relative to other,1.5,NA,congruent,custom_main_text1,big,Your friend says: <br/><b>That present is a big sunflower.</b>
2950,What do you think your friend is saying it is big relative to?,images/doberman_filler.png,images/dog-parade-basic_filler.png,42,filler,no,1,dogs1,jennifer,NA,dogs,dobermans,yes,Your friend points to something in the distance (not shown).,NA,1,subj,rescue,doberman,25,dogs,NA,graduated_college,big,NA,english,female,4558,You and your friend see the following:,9,NA,dogs1_rescue,It is big relative to other,1.5,NA,congruent,custom_main_text1,big,Your friend says: <br/><b>That doberman is big.</b>
2950,What do you think your friend is saying it is big relative to?,images/great-dane.png,images/dog-parade-basic2.png,42,critical,no,1,dogs2,jennifer,NA,dogs,Great Danes,yes,Your friend points to something in the distance (not shown).,NA,1,subj,prize-winner,Great Dane,25,Great,NA,graduated_college,big,NA,english,female,4047,You and your friend are at a pet show and you see the following:,10,NA,dogs2_prize,It is big relative to other,1.5,NA,congruent,custom_main_text1,big,Your friend says: <br/><b>That big Great Dane is a prize-winner.</b>
2950,What do you think your friend is saying it is big relative to?,images/eagle.png,images/bird-parade-basic.png,42,critical,no,1,birds,jennifer,NA,birds,eagles,yes,Your friend points to something in the distance (not shown).,NA,1,pred,rescue,eagle,25,birds,NA,graduated_college,big,NA,english,female,7142,You visit your friend who works at an animal shelter and you see the following:,11,NA,birds_rescue,It is big relative to other,1.5,NA,congruent,custom_main_text1,big,Your friend says: <br/><b>That rescue is a big eagle.</b>
2950,What do you think your friend is saying it is big relative to?,images/tuna_filler.png,images/fish-parade-basic_filler.png,42,filler,no,1,fish,jennifer,NA,fish,tunas,yes,Your friend points to something in the distance (not shown).,NA,1,pred,rescue,tuna,25,tunas,NA,graduated_college,big,NA,english,female,6736,You and your friend see the following:,12,NA,fish_rescue,It is big relative to other,1.5,NA,congruent,custom_main_text1,big,Your friend says: <br/><b>That's a big tuna.</b>
2950,What do you think your friend is saying it is small relative to?,images/dandelion_filler.png,images/flower-parade-basic_filler.png,42,filler,no,1,flowers,jennifer,NA,flowers,dandelions,yes,Your friend points to something in the distance (not shown).,NA,1,subj,present,dandelion,25,flowers,NA,graduated_college,small,NA,english,female,4306,You and your friend see the following:,13,NA,flowers_present,It is small relative to other,1.5,NA,congruent,custom_main_text1,small,Your friend says: <br/><b>That dandelion is small.</b>
2950,What do you think your friend is saying it is small relative to?,images/bonsai_stick.png,images/tree-parade-basic.png,42,critical,no,1,trees,jennifer,NA,trees,bonsais,yes,Your friend points to something in the distance (not shown).,NA,1,subj,landmark,bonsai,25,trees,NA,graduated_college,small,NA,english,female,9387,You and your friend walk to your friend's cabin in a park for the first time. You want to memorize the path and you see the following:,14,NA,trees_landmark,It is small relative to other,1.5,NA,congruent,custom_main_text1,small,Your friend says: <br/><b>That small bonsai is a landmark.</b>
2950,What do you think your friend is saying it is small relative to?,images/stripmall-landmark.png,images/buildings-parade-basic.png,42,critical,no,1,buildings,jennifer,NA,buildings,strip malls,yes,Your friend points to something in the distance (not shown).,NA,1,pred,landmark,strip mall,25,strip,NA,graduated_college,small,NA,english,female,5391,You visit your friend who lives in another city. You take a walk and you see the following:,15,NA,buildings_landmark,It is small relative to other,1.5,NA,congruent,custom_main_text1,small,Your friend says: <br/><b>That landmark is a small strip mall.</b>
2950,What do you think your friend is saying it is big relative to?,images/skyscraper-landmark-filler.png,images/buildings-parade-basic_filler.png,42,filler,no,1,buildings,jennifer,NA,buildings,skyscrapers,yes,Your friend points to something in the distance (not shown).,NA,1,subj,landmark,skyscraper,25,buildings,NA,graduated_college,big,NA,english,female,3755,You and your friend see the following:,16,NA,buildings_landmark,It is big relative to other,1.5,NA,congruent,custom_main_text1,big,Your friend says: <br/><b>That skyscraper is big.</b>
2949,<i>What do you think Speaker A meant? </i>,NA,NA,42,NA,Na,1,NA,Jessica,1,NA,NA,yes,NA,"<b> Speaker A: ""The Empire State Building is tall.""</b>",NA,NA,NA,NA,27,buildings,Na,graduated_college,NA,comp_class_warmup,English,female,NA,In the main trials you will be asked to rephrase something a person said. The utterance will contain a word that is <i>relative</i> and your task is to figure out what it is relative to. <br /> <br /> For example: <br />,1,1,NA,The Empire State Building is tall relative to other,1,"buildings, skyscrapers, houses, constructions (choose one)",NA,comp_class_warmup,NA,NA
2949,What do you think your friend is saying it is big relative to?,images/doberman-rescue.png,images/dog-parade-basic-rescue.png,42,critical,Na,1,dogs1,Jessica,NA,dobermans,dogs,yes,Your friend points to something in the distance (not shown).,NA,0,subj,rescue,doberman,27,dogs,Na,graduated_college,big,NA,English,female,16552,You visit your friend who works at an animal shelter and you see the following:,1,NA,dogs1_rescue,It is big relative to other,1,NA,congruent,custom_main_text1,big,Your friend says: <br/><b>That big doberman is a rescue.</b>
2949,What do you think your friend is saying it is small relative to?,images/pug_filler.png,images/dog-parade-basic2_filler2.png,42,filler,Na,1,dogs2,Jessica,NA,pugs,dogs,yes,Your friend points to something in the distance (not shown).,NA,0,subj,stray,pug,27,dogs,Na,graduated_college,small,NA,English,female,13460,You and your friend see the following:,2,NA,dogs2_stray,It is small relative to other,1,NA,congruent,custom_main_text1,small,Your friend says: <br/><b>That pug is small.</b>
2949,What do you think your friend is saying it is small relative to?,images/chihuahua_filler.png,images/dog-parade-basic_filler.png,42,filler,Na,1,dogs1,Jessica,NA,chihuahuas,dogs,yes,Your friend points to something in the distance (not shown).,NA,0,pred,rescue,chihuahua,27,dogs,Na,graduated_college,small,NA,English,female,4863,You and your friend see the following:,3,NA,dogs1_rescue,It is small relative to other,1,NA,congruent,custom_main_text1,small,Your friend says: <br/><b>That's a small chihuahua.</b>
2949,What do you think your friend is saying it is big relative to?,images/eagle_filler.png,images/bird-parade-basic_filler.png,42,filler,Na,1,birds,Jessica,NA,eagles,birds,yes,Your friend points to something in the distance (not shown).,NA,0,subj,rescue,eagle,27,birds,Na,graduated_college,big,NA,English,female,11945,You and your friend see the following:,4,NA,birds_rescue,It is big relative to other,1,NA,congruent,custom_main_text1,big,Your friend says: <br/><b>That eagle is big.</b>
2949,What do you think your friend is saying it is big relative to?,images/great-dane_filler.png,images/dog-parade-basic2_filler.png,42,filler,Na,1,dogs2,Jessica,NA,Great Danes,dogs,yes,Your friend points to something in the distance (not shown).,NA,0,pred,prize-winner,Great Dane,27,dogs,Na,graduated_college,big,NA,English,female,5347,You and your friend see the following:,5,NA,dogs2_prize,It is big relative to other,1,NA,congruent,custom_main_text1,big,Your friend says: <br/><b>That's a big Great Dane.</b>
2949,What do you think your friend is saying it is small relative to?,images/hummingbird.png,images/bird-parade-basic.png,42,critical,Na,1,birds,Jessica,NA,hummingbirds,birds,yes,Your friend points to something in the distance (not shown).,NA,0,pred,rescue,hummingbird,27,hummingbirds,Na,graduated_college,small,NA,English,female,20270,You visit your friend who works at an animal shelter and you see the following:,6,NA,birds_rescue,It is small relative to other,1,NA,congruent,custom_main_text1,small,Your friend says: <br/><b>That rescue is a small hummingbird.</b>
2949,What do you think your friend is saying it is big relative to?,images/sunflower_filler.png,images/flower-parade-basic_filler.png,42,filler,Na,1,flowers,Jessica,NA,sunflowers,flowers,yes,Your friend points to something in the distance (not shown).,NA,0,pred,landmark,sunflower,27,sunflowers,Na,graduated_college,big,NA,English,female,13786,You and your friend see the following:,7,NA,flowers_landmark,It is big relative to other,1,NA,congruent,custom_main_text1,big,Your friend says: <br/><b>That's a big sunflower.</b>
2949,What do you think your friend is saying it is small relative to?,images/pug.png,images/dog-parade-basic2.png,42,critical,Na,1,dogs2,Jessica,NA,pugs,dogs,yes,Your friend points to something in the distance (not shown).,NA,0,subj,prize-winner,pug,27,pugs,Na,graduated_college,small,NA,English,female,16276,You and your friend are at a pet show and you see the following:,8,NA,dogs2_prize,It is small relative to other,1,NA,congruent,custom_main_text1,small,Your friend says: <br/><b>That small pug is a prize-winner.</b>
2949,What do you think your friend is saying it is small relative to?,images/clownfish_filler.png,images/fish-parade-basic_filler.png,42,filler,Na,1,fish,Jessica,NA,clownfish,fish,yes,Your friend points to something in the distance (not shown).,NA,0,pred,rescue,clownfish,27,fish,Na,graduated_college,small,NA,English,female,7584,You and your friend see the following:,9,NA,fish_rescue,It is small relative to other,1,NA,congruent,custom_main_text1,small,Your friend says: <br/><b>That's a small clownfish.</b>
2949,What do you think your friend is saying it is big relative to?,images/tuna_net.png,images/fish-parade-basic.png,42,critical,Na,1,fish,Jessica,NA,tunas,fish,yes,Your friend points to something in the distance (not shown).,NA,0,subj,rescue,tuna,27,fish,Na,graduated_college,big,NA,English,female,5431,You visit your friend who works as a marine biologist and you see the following:,10,NA,fish_rescue,It is big relative to other,1,NA,congruent,custom_main_text1,big,Your friend says: <br/><b>That big tuna is a rescue.</b>
2949,What do you think your friend is saying it is small relative to?,images/bonsai_stick.png,images/tree-parade-basic.png,42,critical,Na,1,trees,Jessica,NA,bonsais,trees,yes,Your friend points to something in the distance (not shown).,NA,0,pred,landmark,bonsai,27,bonsais,Na,graduated_college,small,NA,English,female,49723,You and your friend walk to your friend's cabin in a park for the first time. You want to memorize the path and you see the following:,11,NA,trees_landmark,It is small relative to other,1,NA,congruent,custom_main_text1,small,Your friend says: <br/><b>That landmark is a small bonsai.</b>
2949,What do you think your friend is saying it is small relative to?,images/dandelion-landmark.png,images/flower-parade-basic-landmark.png,42,critical,Na,1,flowers,Jessica,NA,dandelions,flowers,yes,Your friend points to something in the distance (not shown).,NA,0,subj,landmark,dandelion,27,dandelions,Na,graduated_college,small,NA,English,female,5760,You and your friend walk to a cabin you are renting for the weekend for the first time. You go along the path and you see the following:,12,NA,flowers_landmark,It is small relative to other,1,NA,congruent,custom_main_text1,small,Your friend says: <br/><b>That small dandelion is a landmark.</b>
2949,What do you think your friend is saying it is big relative to?,images/redwood_filler.png,images/tree-parade-basic_filler.png,42,filler,Na,1,trees,Jessica,NA,redwoods,trees,yes,Your friend points to something in the distance (not shown).,NA,0,subj,landmark,redwood,27,trees,Na,graduated_college,big,NA,English,female,7976,You and your friend see the following:,13,NA,trees_landmark,It is big relative to other,1,NA,congruent,custom_main_text1,big,Your friend says: <br/><b>That redwood is big.</b>
2949,What do you think your friend is saying it is big relative to?,images/great-dane-gift.png,images/dog-parade-basic2_stray_wLeash.png,42,critical,Na,1,dogs2,Jessica,NA,Great Danes,dogs,yes,Your friend points to something in the distance (not shown).,NA,0,pred,stray,Great Dane,27,Great,Na,graduated_college,big,NA,English,female,4736,You and your friend take a walk in the city park and you see the following:,14,NA,dogs2_stray,It is big relative to other,1,NA,congruent,custom_main_text1,big,Your friend says: <br/><b>That stray is a big Great Dane.</b>
2949,What do you think your friend is saying it is small relative to?,images/stripmall-landmark-filler.png,images/buildings-parade-basic_filler.png,42,filler,Na,1,buildings,Jessica,NA,strip malls,buildings,yes,Your friend points to something in the distance (not shown).,NA,0,subj,landmark,strip mall,27,strip,Na,graduated_college,small,NA,English,female,9785,You and your friend see the following:,15,NA,buildings_landmark,It is small relative to other,1,NA,congruent,custom_main_text1,small,Your friend says: <br/><b>That strip mall is small.</b>
2949,What do you think your friend is saying it is big relative to?,images/skyscraper-landmark.png,images/buildings-parade-basic.png,42,critical,Na,1,buildings,Jessica,NA,skyscrapers,buildings,yes,Your friend points to something in the distance (not shown).,NA,0,pred,landmark,skyscraper,27,skyscrapers,Na,graduated_college,big,NA,English,female,3601,You visit your friend who lives in another city. You take a walk and you see the following:,16,NA,buildings_landmark,It is big relative to other,1,NA,congruent,custom_main_text1,big,Your friend says: <br/><b>That landmark is a big skyscraper.</b>
2948,<i>What do you think Speaker A meant? </i>,NA,NA,42,NA,No,1,NA,linda,1,NA,NA,yes,NA,"<b> Speaker A: ""The Empire State Building is tall.""</b>",NA,NA,NA,NA,20,Buildings,NA,graduated_college,NA,comp_class_warmup,English,female,NA,In the main trials you will be asked to rephrase something a person said. The utterance will contain a word that is <i>relative</i> and your task is to figure out what it is relative to. <br /> <br /> For example: <br />,1,1,NA,The Empire State Building is tall relative to other,NA,"buildings, skyscrapers, houses, constructions (choose one)",NA,comp_class_warmup,NA,NA
2948,What do you think your friend is saying it is big relative to?,images/sunflower.png,images/flower-parade-basic.png,42,critical,No,1,flowers,linda,NA,flowers,sunflowers,yes,Your friend points to something in the distance (not shown).,NA,1,pred,present,sunflower,20,flowers,NA,graduated_college,big,NA,English,female,16021,You and your friend are at a garden store and you see the following:,1,NA,flowers_present,It is big relative to other,NA,NA,congruent,custom_main_text1,big,Your friend says: <br/><b>That present is a big sunflower.</b>
2948,What do you think your friend is saying it is big relative to?,images/doberman-rescue.png,images/dog-parade-basic-rescue.png,42,critical,No,1,dogs1,linda,NA,dogs,dobermans,yes,Your friend points to something in the distance (not shown).,NA,1,subj,rescue,doberman,20,dogs,NA,graduated_college,big,NA,English,female,11450,You visit your friend who works at an animal shelter and you see the following:,2,NA,dogs1_rescue,It is big relative to other,NA,NA,congruent,custom_main_text1,big,Your friend says: <br/><b>That big doberman is a rescue.</b>
2948,What do you think your friend is saying it is big relative to?,images/great-dane_filler.png,images/dog-parade-basic2_filler.png,42,filler,No,1,dogs2,linda,NA,dogs,Great Danes,yes,Your friend points to something in the distance (not shown).,NA,1,subj,prize-winner,Great Dane,20,dogs,NA,graduated_college,big,NA,English,female,4874,You and your friend see the following:,3,NA,dogs2_prize,It is big relative to other,NA,NA,congruent,custom_main_text1,big,Your friend says: <br/><b>That Great Dane is big.</b>
2948,What do you think your friend is saying it is small relative to?,images/pug.png,images/dog-parade-basic2.png,42,critical,No,1,dogs2,linda,NA,dogs,pugs,yes,Your friend points to something in the distance (not shown).,NA,1,pred,prize-winner,pug,20,dogs,NA,graduated_college,small,NA,English,female,5375,You and your friend are at a pet show and you see the following:,4,NA,dogs2_prize,It is small relative to other,NA,NA,congruent,custom_main_text1,small,Your friend says: <br/><b>That prize-winner is a small pug.</b>
2948,What do you think your friend is saying it is small relative to?,images/dandelion-landmark.png,images/flower-parade-basic-landmark.png,42,critical,No,1,flowers,linda,NA,flowers,dandelions,yes,Your friend points to something in the distance (not shown).,NA,1,subj,landmark,dandelion,20,flowers,NA,graduated_college,small,NA,English,female,22008,You and your friend walk to a cabin you are renting for the weekend for the first time. You go along the path and you see the following:,5,NA,flowers_landmark,It is small relative to other,NA,NA,congruent,custom_main_text1,small,Your friend says: <br/><b>That small dandelion is a landmark.</b>
2948,What do you think your friend is saying it is big relative to?,images/eagle_filler.png,images/bird-parade-basic_filler.png,42,filler,No,1,birds,linda,NA,birds,eagles,yes,Your friend points to something in the distance (not shown).,NA,1,pred,rescue,eagle,20,eagles,NA,graduated_college,big,NA,English,female,15254,You and your friend see the following:,6,NA,birds_rescue,It is big relative to other,NA,NA,congruent,custom_main_text1,big,Your friend says: <br/><b>That's a big eagle.</b>
2948,What do you think your friend is saying it is big relative to?,images/doberman.png,images/dog-parade-basic.png,42,critical,No,1,dogs1,linda,NA,dogs,dobermans,yes,Your friend points to something in the distance (not shown).,NA,1,subj,service animal,doberman,20,dobermans,NA,graduated_college,big,NA,English,female,10475,You and your friend are at an animal training ground and you see the following:,7,NA,dogs1_service,It is big relative to other,NA,NA,congruent,custom_main_text1,big,Your friend says: <br/><b>That big doberman is a service animal.</b>
2948,What do you think your friend is saying it is small relative to?,images/chihuahua_filler.png,images/dog-parade-basic_filler.png,42,filler,No,1,dogs1,linda,NA,dogs,chihuahuas,yes,Your friend points to something in the distance (not shown).,NA,1,pred,service animal,chihuahua,20,chihuahuas,NA,graduated_college,small,NA,English,female,5479,You and your friend see the following:,8,NA,dogs1_service,It is small relative to other,NA,NA,congruent,custom_main_text1,small,Your friend says: <br/><b>That's a small chihuahua.</b>
2948,What do you think your friend is saying it is big relative to?,images/tuna_net.png,images/fish-parade-basic.png,42,critical,No,1,fish,linda,NA,fish,tunas,yes,Your friend points to something in the distance (not shown).,NA,1,pred,rescue,tuna,20,fish,NA,graduated_college,big,NA,English,female,7355,You visit your friend who works as a marine biologist and you see the following:,9,NA,fish_rescue,It is big relative to other,NA,NA,congruent,custom_main_text1,big,Your friend says: <br/><b>That rescue is a big tuna.</b>
2948,What do you think your friend is saying it is small relative to?,images/hummingbird.png,images/bird-parade-basic.png,42,critical,No,1,birds,linda,NA,birds,hummingbirds,yes,Your friend points to something in the distance (not shown).,NA,1,subj,rescue,hummingbird,20,hummingbirds,NA,graduated_college,small,NA,English,female,11549,You visit your friend who works at an animal shelter and you see the following:,10,NA,birds_rescue,It is small relative to other,NA,NA,congruent,custom_main_text1,small,Your friend says: <br/><b>That small hummingbird is a rescue.</b>
2948,What do you think your friend is saying it is small relative to?,images/clownfish_filler.png,images/fish-parade-basic_filler.png,42,filler,No,1,fish,linda,NA,fish,clownfish,yes,Your friend points to something in the distance (not shown).,NA,1,subj,rescue,clownfish,20,clownfish,NA,graduated_college,small,NA,English,female,15106,You and your friend see the following:,11,NA,fish_rescue,It is small relative to other,NA,NA,congruent,custom_main_text1,small,Your friend says: <br/><b>That clownfish is small.</b>
2948,What do you think your friend is saying it is big relative to?,images/sunflower_filler.png,images/flower-parade-basic_filler.png,42,filler,No,1,flowers,linda,NA,flowers,sunflowers,yes,Your friend points to something in the distance (not shown).,NA,1,pred,landmark,sunflower,20,sunflowers,NA,graduated_college,big,NA,English,female,7329,You and your friend see the following:,12,NA,flowers_landmark,It is big relative to other,NA,NA,congruent,custom_main_text1,big,Your friend says: <br/><b>That's a big sunflower.</b>
2948,What do you think your friend is saying it is big relative to?,images/skyscraper-landmark-filler.png,images/buildings-parade-basic_filler.png,42,filler,No,1,buildings,linda,NA,buildings,skyscrapers,yes,Your friend points to something in the distance (not shown).,NA,1,subj,landmark,skyscraper,20,skyscrapers,NA,graduated_college,big,NA,English,female,7421,You and your friend see the following:,13,NA,buildings_landmark,It is big relative to other,NA,NA,congruent,custom_main_text1,big,Your friend says: <br/><b>That skyscraper is big.</b>
2948,What do you think your friend is saying it is small relative to?,images/chihuahua_filler.png,images/dog-parade-basic_filler.png,42,filler,No,1,dogs1,linda,NA,dogs,chihuahuas,yes,Your friend points to something in the distance (not shown).,NA,1,pred,rescue,chihuahua,20,chihuahuas,NA,graduated_college,small,NA,English,female,5740,You and your friend see the following:,14,NA,dogs1_rescue,It is small relative to other,NA,NA,congruent,custom_main_text1,small,Your friend says: <br/><b>That's a small chihuahua.</b>
2948,What do you think your friend is saying it is small relative to?,images/dandelion_filler.png,images/flower-parade-basic_filler.png,42,filler,No,1,flowers,linda,NA,flowers,dandelions,yes,Your friend points to something in the distance (not shown).,NA,1,subj,present,dandelion,20,dandelions,NA,graduated_college,small,NA,English,female,7594,You and your friend see the following:,15,NA,flowers_present,It is small relative to other,NA,NA,congruent,custom_main_text1,small,Your friend says: <br/><b>That dandelion is small.</b>
2948,What do you think your friend is saying it is small relative to?,images/stripmall-landmark.png,images/buildings-parade-basic.png,42,critical,No,1,buildings,linda,NA,buildings,strip malls,yes,Your friend points to something in the distance (not shown).,NA,1,pred,landmark,strip mall,20,strip,NA,graduated_college,small,NA,English,female,13088,You visit your friend who lives in another city. You take a walk and you see the following:,16,NA,buildings_landmark,It is small relative to other,NA,NA,congruent,custom_main_text1,small,Your friend says: <br/><b>That landmark is a small strip mall.</b>
2947,<i>What do you think Speaker A meant? </i>,NA,NA,42,NA,No,0,NA,Barbara,1,NA,NA,yes,NA,"<b> Speaker A: ""The Empire State Building is tall.""</b>",NA,NA,NA,NA,21,buildings,NA,some_college,NA,comp_class_warmup,English,male,NA,In the main trials you will be asked to rephrase something a person said. The utterance will contain a word that is <i>relative</i> and your task is to figure out what it is relative to. <br /> <br /> For example: <br />,1,1,NA,The Empire State Building is tall relative to other,NA,"buildings, skyscrapers, houses, constructions (choose one)",NA,comp_class_warmup,NA,NA
2947,What do you think your friend is saying it is big relative to?,images/doberman_filler.png,images/dog-parade-basic_filler.png,42,filler,No,0,dogs1,Barbara,NA,dobermans,dogs,yes,Your friend points to something in the distance (not shown).,NA,0,pred,rescue,doberman,21,dobermans,NA,some_college,big,NA,English,male,8327,You and your friend see the following:,1,NA,dogs1_rescue,It is big relative to other,NA,NA,congruent,custom_main_text1,big,Your friend says: <br/><b>That's a big doberman.</b>
2947,What do you think your friend is saying it is small relative to?,images/stripmall-landmark.png,images/buildings-parade-basic.png,42,critical,No,0,buildings,Barbara,NA,strip malls,buildings,yes,Your friend points to something in the distance (not shown).,NA,0,subj,landmark,strip mall,21,strip,NA,some_college,small,NA,English,male,8468,You visit your friend who lives in another city. You take a walk and you see the following:,2,NA,buildings_landmark,It is small relative to other,NA,NA,congruent,custom_main_text1,small,Your friend says: <br/><b>That small strip mall is a landmark.</b>
2947,What do you think your friend is saying it is big relative to?,images/doberman.png,images/dog-parade-basic.png,42,critical,No,0,dogs1,Barbara,NA,dobermans,dogs,yes,Your friend points to something in the distance (not shown).,NA,0,pred,service animal,doberman,21,dobermans,NA,some_college,big,NA,English,male,14235,You and your friend are at an animal training ground and you see the following:,3,NA,dogs1_service,It is big relative to other,NA,NA,congruent,custom_main_text1,big,Your friend says: <br/><b>That service animal is a big doberman.</b>
2947,What do you think your friend is saying it is big relative to?,images/tuna_filler.png,images/fish-parade-basic_filler.png,42,filler,No,0,fish,Barbara,NA,tunas,fish,yes,Your friend points to something in the distance (not shown).,NA,0,subj,rescue,tuna,21,tunas,NA,some_college,big,NA,English,male,7807,You and your friend see the following:,4,NA,fish_rescue,It is big relative to other,NA,NA,congruent,custom_main_text1,big,Your friend says: <br/><b>That tuna is big.</b>
2947,What do you think your friend is saying it is small relative to?,images/pug.png,images/dog-parade-basic2.png,42,critical,No,0,dogs2,Barbara,NA,pugs,dogs,yes,Your friend points to something in the distance (not shown).,NA,0,pred,prize-winner,pug,21,pugs,NA,some_college,small,NA,English,male,5752,You and your friend are at a pet show and you see the following:,5,NA,dogs2_prize,It is small relative to other,NA,NA,congruent,custom_main_text1,small,Your friend says: <br/><b>That prize-winner is a small pug.</b>
2947,What do you think your friend is saying it is small relative to?,images/bonsai_filler.png,images/tree-parade-basic_filler.png,42,filler,No,0,trees,Barbara,NA,bonsais,trees,yes,Your friend points to something in the distance (not shown).,NA,0,subj,landmark,bonsai,21,bonsais,NA,some_college,small,NA,English,male,9349,You and your friend see the following:,6,NA,trees_landmark,It is small relative to other,NA,NA,congruent,custom_main_text1,small,Your friend says: <br/><b>That bonsai is small.</b>
2947,What do you think your friend is saying it is small relative to?,images/chihuahua-rescue.png,images/dog-parade-basic-rescue.png,42,critical,No,0,dogs1,Barbara,NA,chihuahuas,dogs,yes,Your friend points to something in the distance (not shown).,NA,0,subj,rescue,chihuahua,21,chihuahuas,NA,some_college,small,NA,English,male,6132,You visit your friend who works at an animal shelter and you see the following:,7,NA,dogs1_rescue,It is small relative to other,NA,NA,congruent,custom_main_text1,small,Your friend says: <br/><b>That small chihuahua is a rescue.</b>
2947,What do you think your friend is saying it is small relative to?,images/hummingbird_filler.png,images/bird-parade-basic_filler.png,42,filler,No,0,birds,Barbara,NA,hummingbirds,birds,yes,Your friend points to something in the distance (not shown).,NA,0,pred,rescue,hummingbird,21,hummingbirds,NA,some_college,small,NA,English,male,16356,You and your friend see the following:,8,NA,birds_rescue,It is small relative to other,NA,NA,congruent,custom_main_text1,small,Your friend says: <br/><b>That's a small hummingbird.</b>
2947,What do you think your friend is saying it is big relative to?,images/great-dane-gift.png,images/dog-parade-basic2_stray_wLeash.png,42,critical,No,0,dogs2,Barbara,NA,Great Danes,dogs,yes,Your friend points to something in the distance (not shown).,NA,0,subj,stray,Great Dane,21,Great,NA,some_college,big,NA,English,male,3852,You and your friend take a walk in the city park and you see the following:,9,NA,dogs2_stray,It is big relative to other,NA,NA,congruent,custom_main_text1,big,Your friend says: <br/><b>That big Great Dane is a stray.</b>
2947,What do you think your friend is saying it is big relative to?,images/redwood_sign.png,images/tree-parade-basic.png,42,critical,No,0,trees,Barbara,NA,redwoods,trees,yes,Your friend points to something in the distance (not shown).,NA,0,pred,landmark,redwood,21,redwoods,NA,some_college,big,NA,English,male,5077,You and your friend walk to your friend's cabin in a park for the first time. You want to memorize the path and you see the following:,10,NA,trees_landmark,It is big relative to other,NA,NA,congruent,custom_main_text1,big,Your friend says: <br/><b>That landmark is a big redwood.</b>
2947,What do you think your friend is saying it is big relative to?,images/skyscraper-landmark-filler.png,images/buildings-parade-basic_filler.png,42,filler,No,0,buildings,Barbara,NA,skyscrapers,buildings,yes,Your friend points to something in the distance (not shown).,NA,0,pred,landmark,skyscraper,21,skyscrapers,NA,some_college,big,NA,English,male,5168,You and your friend see the following:,11,NA,buildings_landmark,It is big relative to other,NA,NA,congruent,custom_main_text1,big,Your friend says: <br/><b>That's a big skyscraper.</b>
2947,What do you think your friend is saying it is big relative to?,images/eagle.png,images/bird-parade-basic.png,42,critical,No,0,birds,Barbara,NA,eagles,birds,yes,Your friend points to something in the distance (not shown).,NA,0,subj,rescue,eagle,21,eagles,NA,some_college,big,NA,English,male,4084,You visit your friend who works at an animal shelter and you see the following:,12,NA,birds_rescue,It is big relative to other,NA,NA,congruent,custom_main_text1,big,Your friend says: <br/><b>That big eagle is a rescue.</b>
2947,What do you think your friend is saying it is small relative to?,images/clownfish_net.png,images/fish-parade-basic.png,42,critical,No,0,fish,Barbara,NA,clownfish,fish,yes,Your friend points to something in the distance (not shown).,NA,0,pred,rescue,clownfish,21,clownfish,NA,some_college,small,NA,English,male,4858,You visit your friend who works as a marine biologist and you see the following:,13,NA,fish_rescue,It is small relative to other,NA,NA,congruent,custom_main_text1,small,Your friend says: <br/><b>That rescue is a small clownfish.</b>
2947,What do you think your friend is saying it is big relative to?,images/great-dane_filler.png,images/dog-parade-basic2_filler.png,42,filler,No,0,dogs2,Barbara,NA,Great Danes,dogs,yes,Your friend points to something in the distance (not shown).,NA,0,subj,prize-winner,Great Dane,21,dogs,NA,some_college,big,NA,English,male,7422,You and your friend see the following:,14,NA,dogs2_prize,It is big relative to other,NA,NA,congruent,custom_main_text1,big,Your friend says: <br/><b>That Great Dane is big.</b>
2947,What do you think your friend is saying it is small relative to?,images/pug_filler.png,images/dog-parade-basic2_filler2.png,42,filler,No,0,dogs2,Barbara,NA,pugs,dogs,yes,Your friend points to something in the distance (not shown).,NA,0,pred,stray,pug,21,pugs,NA,some_college,small,NA,English,male,3753,You and your friend see the following:,15,NA,dogs2_stray,It is small relative to other,NA,NA,congruent,custom_main_text1,small,Your friend says: <br/><b>That's a small pug.</b>
2947,What do you think your friend is saying it is small relative to?,images/chihuahua_filler.png,images/dog-parade-basic_filler.png,42,filler,No,0,dogs1,Barbara,NA,chihuahuas,dogs,yes,Your friend points to something in the distance (not shown).,NA,0,subj,service animal,chihuahua,21,dogs,NA,some_college,small,NA,English,male,3754,You and your friend see the following:,16,NA,dogs1_service,It is small relative to other,NA,NA,congruent,custom_main_text1,small,Your friend says: <br/><b>That chihuahua is small.</b>
2946,<i>What do you think Speaker A meant? </i>,NA,NA,42,NA,no,1,NA,margaret,1,NA,NA,yes,NA,"<b> Speaker A: ""The Empire State Building is tall.""</b>",NA,NA,NA,NA,24,buildings,NA,graduated_college,NA,comp_class_warmup,English,female,NA,In the main trials you will be asked to rephrase something a person said. The utterance will contain a word that is <i>relative</i> and your task is to figure out what it is relative to. <br /> <br /> For example: <br />,1,1,NA,The Empire State Building is tall relative to other,1.8,"buildings, skyscrapers, houses, constructions (choose one)",NA,comp_class_warmup,NA,NA
2946,What do you think your friend is saying it is small relative to?,images/dandelion_filler.png,images/flower-parade-basic_filler.png,42,filler,no,1,flowers,margaret,NA,dandelions,flowers,yes,Your friend points to something in the distance (not shown).,NA,0,pred,landmark,dandelion,24,flowers,NA,graduated_college,small,NA,English,female,10002,You and your friend see the following:,1,NA,flowers_landmark,It is small relative to other,1.8,NA,congruent,custom_main_text1,small,Your friend says: <br/><b>That's a small dandelion.</b>
2946,What do you think your friend is saying it is big relative to?,images/redwood_sign.png,images/tree-parade-basic.png,42,critical,no,1,trees,margaret,NA,redwoods,trees,yes,Your friend points to something in the distance (not shown).,NA,0,pred,landmark,redwood,24,trees,NA,graduated_college,big,NA,English,female,15490,You and your friend walk to your friend's cabin in a park for the first time. You want to memorize the path and you see the following:,2,NA,trees_landmark,It is big relative to other,1.8,NA,congruent,custom_main_text1,big,Your friend says: <br/><b>That landmark is a big redwood.</b>
2946,What do you think your friend is saying it is big relative to?,images/great-dane_filler.png,images/dog-parade-basic2_filler2.png,42,filler,no,1,dogs2,margaret,NA,Great Danes,dogs,yes,Your friend points to something in the distance (not shown).,NA,0,subj,stray,Great Dane,24,dogs,NA,graduated_college,big,NA,English,female,6846,You and your friend see the following:,3,NA,dogs2_stray,It is big relative to other,1.8,NA,congruent,custom_main_text1,big,Your friend says: <br/><b>That Great Dane is big.</b>
2946,What do you think your friend is saying it is small relative to?,images/stripmall-landmark.png,images/buildings-parade-basic.png,42,critical,no,1,buildings,margaret,NA,strip malls,buildings,yes,Your friend points to something in the distance (not shown).,NA,0,subj,landmark,strip mall,24,buildings,NA,graduated_college,small,NA,English,female,13236,You visit your friend who lives in another city. You take a walk and you see the following:,4,NA,buildings_landmark,It is small relative to other,1.8,NA,congruent,custom_main_text1,small,Your friend says: <br/><b>That small strip mall is a landmark.</b>
2946,What do you think your friend is saying it is small relative to?,images/chihuahua_filler.png,images/dog-parade-basic_filler.png,42,filler,no,1,dogs1,margaret,NA,chihuahuas,dogs,yes,Your friend points to something in the distance (not shown).,NA,0,subj,rescue,chihuahua,24,dogs,NA,graduated_college,small,NA,English,female,5849,You and your friend see the following:,5,NA,dogs1_rescue,It is small relative to other,1.8,NA,congruent,custom_main_text1,small,Your friend says: <br/><b>That chihuahua is small.</b>
