submission_id,question,startDate,target_picture,context_picture,experiment_id,trial_type,problems,enjoyment,item,botresponse,trials,option2,option1,understand,text,sentence,syntax,ref_np,target,age,response,comments,education,target_size,name,languages,sex,RT,context,trial_number,startTime,attempts,item_noun,paraphrase,fairprice,correct,adj_cond,trial_name,adj,utterance
2768,<i>What do you think Speaker A meant? </i>,Thu Apr 08 2021 14:12:01 GMT-0400 (Eastern Daylight Time),NA,NA,39,NA,None that I noticed.,2,NA,Linda,1,NA,NA,yes,NA,"<b> Speaker A: ""The Empire State Building is tall.""</b>",NA,NA,NA,23,buildings,"Very interesting, fun survey. Thank you!",some_college,NA,comp_class_warmup,English,male,NA,In the main trials you will be asked to rephrase something a person said. The utterance will contain a word that is <i>relative</i> and your task is to figure out what it is relative to. <br /> <br /> For example: <br />,1,1617905521412,1,NA,The Empire State Building is tall relative to other,1,"buildings, skyscrapers, houses, constructions (choose one)",NA,comp_class_warmup,NA,NA
2768,What do you think your friend is saying it is small relative to?,Thu Apr 08 2021 14:12:01 GMT-0400 (Eastern Daylight Time),images/chihuahua-rescue.png,images/dog-parade-basic-rescue.png,39,critical,None that I noticed.,2,dogs1,Linda,NA,dogs,chihuahuas,yes,Your friend goes ahead of you. You see your friend in the distance:,NA,pred,rescue,chihuahua,23,chihuahuas,"Very interesting, fun survey. Thank you!",some_college,small,NA,English,male,10162,You visit your friend who works at an animal shelter and you see the following:,1,1617905521412,NA,dogs1_rescue,It is small relative to other,1,NA,congruent,custom_main_text1,small,Your friend says: <br/><b>That rescue is a small chihuahua.</b>
2768,What do you think your friend is saying it is big relative to?,Thu Apr 08 2021 14:12:01 GMT-0400 (Eastern Daylight Time),images/eagle.png,images/bird-parade-basic.png,39,critical,None that I noticed.,2,birds,Linda,NA,birds,eagles,yes,Your friend goes ahead of you. You see your friend in the distance:,NA,pred,rescue,eagle,23,eagles,"Very interesting, fun survey. Thank you!",some_college,big,NA,English,male,3032,You visit your friend who works at an animal shelter and you see the following:,2,1617905521412,NA,birds_rescue,It is big relative to other,1,NA,congruent,custom_main_text1,big,Your friend says: <br/><b>That rescue is a big eagle.</b>
2768,What do you think your friend is saying it is big relative to?,Thu Apr 08 2021 14:12:01 GMT-0400 (Eastern Daylight Time),images/skyscraper-landmark.png,images/buildings-parade-basic.png,39,critical,None that I noticed.,2,buildings,Linda,NA,skyscrapers,buildings,yes,Your friend goes ahead of you. You see your friend in the distance:,NA,subj,landmark,skyscraper,23,skyscrapers,"Very interesting, fun survey. Thank you!",some_college,big,NA,English,male,6139,You visit your friend who lives in another city. You take a walk and you see the following:,3,1617905521412,NA,buildings_landmark,It is big relative to other,1,NA,congruent,custom_main_text1,big,Your friend says: <br/><b>That big skyscraper is a landmark.</b>
2768,What do you think your friend is saying it is big relative to?,Thu Apr 08 2021 14:12:01 GMT-0400 (Eastern Daylight Time),images/doberman-rescue.png,images/dog-parade-basic-rescue.png,39,critical,None that I noticed.,2,dogs1,Linda,NA,dobermen,dogs,yes,Your friend goes ahead of you. You see your friend in the distance:,NA,subj,rescue,doberman,23,dobermen,"Very interesting, fun survey. Thank you!",some_college,big,NA,English,male,7138,You visit your friend who works at an animal shelter and you see the following:,4,1617905521412,NA,dogs1_rescue,It is big relative to other,1,NA,congruent,custom_main_text1,big,Your friend says: <br/><b>That big doberman is a rescue.</b>
2768,What do you think your friend is saying it is small relative to?,Thu Apr 08 2021 14:12:01 GMT-0400 (Eastern Daylight Time),images/stripmall-landmark.png,images/buildings-parade-basic.png,39,critical,None that I noticed.,2,buildings,Linda,NA,buildings,stripmalls,yes,Your friend goes ahead of you. You see your friend in the distance:,NA,pred,landmark,stripmall,23,stripmalls,"Very interesting, fun survey. Thank you!",some_college,small,NA,English,male,9315,You visit your friend who lives in another city. You take a walk and you see the following:,5,1617905521412,NA,buildings_landmark,It is small relative to other,1,NA,congruent,custom_main_text1,small,Your friend says: <br/><b>That landmark is a small stripmall.</b>
2768,What do you think your friend is saying it is small relative to?,Thu Apr 08 2021 14:12:01 GMT-0400 (Eastern Daylight Time),images/chihuahua.png,images/dog-parade-basic.png,39,critical,None that I noticed.,2,dogs1,Linda,NA,dogs,chihuahuas,yes,Your friend goes ahead of you. You see your friend in the distance:,NA,subj,service-animal,chihuahua,23,chihuahuas,"Very interesting, fun survey. Thank you!",some_college,small,NA,English,male,6118,You and your friend are at an animal training ground and you see the following:,6,1617905521412,NA,dogs1_service,It is small relative to other,1,NA,congruent,custom_main_text1,small,Your friend says: <br/><b>That small chihuahua is a service-animal.</b>
2768,What do you think your friend is saying it is small relative to?,Thu Apr 08 2021 14:12:01 GMT-0400 (Eastern Daylight Time),images/bonsai_stick.png,images/tree-parade-basic.png,39,critical,None that I noticed.,2,trees,Linda,NA,trees,bonsais,yes,Your friend goes ahead of you. You see your friend in the distance:,NA,pred,landmark,bonsai,23,bonsais,"Very interesting, fun survey. Thank you!",some_college,small,NA,English,male,24997,You and your friend walk to your friend's cabin in a park for the first time. You want to memorize the path and you see the following:,7,1617905521412,NA,trees_landmark,It is small relative to other,1,NA,congruent,custom_main_text1,small,Your friend says: <br/><b>That landmark is a small bonsai.</b>
2768,What do you think your friend is saying it is small relative to?,Thu Apr 08 2021 14:12:01 GMT-0400 (Eastern Daylight Time),images/clownfish_net.png,images/fish-parade-basic.png,39,critical,None that I noticed.,2,fish,Linda,NA,fish,clownfish,yes,Your friend goes ahead of you. You see your friend in the distance:,NA,subj,rescue,clownfish,23,clownfish,"Very interesting, fun survey. Thank you!",some_college,small,NA,English,male,3260,You visit your friend who works as a marine biologist and you see the following:,8,1617905521412,NA,fish_rescue,It is small relative to other,1,NA,congruent,custom_main_text1,small,Your friend says: <br/><b>That small clownfish is a rescue.</b>
2768,What do you think your friend is saying it is small relative to?,Thu Apr 08 2021 14:12:01 GMT-0400 (Eastern Daylight Time),images/hummingbird.png,images/bird-parade-basic.png,39,critical,None that I noticed.,2,birds,Linda,NA,hummingbirds,birds,yes,Your friend goes ahead of you. You see your friend in the distance:,NA,subj,rescue,hummingbird,23,hummingbirds,"Very interesting, fun survey. Thank you!",some_college,small,NA,English,male,5627,You visit your friend who works at an animal shelter and you see the following:,9,1617905521412,NA,birds_rescue,It is small relative to other,1,NA,congruent,custom_main_text1,small,Your friend says: <br/><b>That small hummingbird is a rescue.</b>
2768,What do you think your friend is saying it is big relative to?,Thu Apr 08 2021 14:12:01 GMT-0400 (Eastern Daylight Time),images/tuna_net.png,images/fish-parade-basic.png,39,critical,None that I noticed.,2,fish,Linda,NA,tunas,fish,yes,Your friend goes ahead of you. You see your friend in the distance:,NA,pred,rescue,tuna,23,tunas,"Very interesting, fun survey. Thank you!",some_college,big,NA,English,male,2891,You visit your friend who works as a marine biologist and you see the following:,10,1617905521412,NA,fish_rescue,It is big relative to other,1,NA,congruent,custom_main_text1,big,Your friend says: <br/><b>That rescue is a big tuna.</b>
2768,What do you think your friend is saying it is big relative to?,Thu Apr 08 2021 14:12:01 GMT-0400 (Eastern Daylight Time),images/doberman.png,images/dog-parade-basic.png,39,critical,None that I noticed.,2,dogs1,Linda,NA,dobermen,dogs,yes,Your friend goes ahead of you. You see your friend in the distance:,NA,pred,service-animal,doberman,23,dobermen,"Very interesting, fun survey. Thank you!",some_college,big,NA,English,male,3659,You and your friend are at an animal training ground and you see the following:,11,1617905521412,NA,dogs1_service,It is big relative to other,1,NA,congruent,custom_main_text1,big,Your friend says: <br/><b>That service-animal is a big doberman.</b>
2768,What do you think your friend is saying it is big relative to?,Thu Apr 08 2021 14:12:01 GMT-0400 (Eastern Daylight Time),images/redwood_sign.png,images/tree-parade-basic.png,39,critical,None that I noticed.,2,trees,Linda,NA,trees,redwoods,yes,Your friend goes ahead of you. You see your friend in the distance:,NA,subj,landmark,redwood,23,redwoods,"Very interesting, fun survey. Thank you!",some_college,big,NA,English,male,5564,You and your friend walk to your friend's cabin in a park for the first time. You want to memorize the path and you see the following:,12,1617905521412,NA,trees_landmark,It is big relative to other,1,NA,congruent,custom_main_text1,big,Your friend says: <br/><b>That big redwood is a landmark.</b>
2767,<i>What do you think Speaker A meant? </i>,Thu Apr 08 2021 11:02:03 GMT-0700 (Pacific Daylight Time),NA,NA,39,NA,No,1,NA,elizabeth,1,NA,NA,yes,NA,"<b> Speaker A: ""The Empire State Building is tall.""</b>",NA,NA,NA,32,buildings.,NA,graduated_college,NA,comp_class_warmup,English,male,NA,In the main trials you will be asked to rephrase something a person said. The utterance will contain a word that is <i>relative</i> and your task is to figure out what it is relative to. <br /> <br /> For example: <br />,1,1617904923915,1,NA,The Empire State Building is tall relative to other,1,"buildings, skyscrapers, houses, constructions (choose one)",NA,comp_class_warmup,NA,NA
2767,<i>What do you think Speaker A meant? </i>,Thu Apr 08 2021 11:02:03 GMT-0700 (Pacific Daylight Time),NA,NA,39,NA,No,1,NA,elizabeth,1,NA,NA,yes,NA,"<b> Speaker A: ""The Empire State Building is tall.""</b>",NA,NA,NA,32,buildings.,NA,graduated_college,NA,comp_class_warmup,English,male,NA,In the main trials you will be asked to rephrase something a person said. The utterance will contain a word that is <i>relative</i> and your task is to figure out what it is relative to. <br /> <br /> For example: <br />,1,1617904923915,2,NA,The Empire State Building is tall relative to other,1,"buildings, skyscrapers, houses, constructions (choose one)",NA,comp_class_warmup,NA,NA
2767,<i>What do you think Speaker A meant? </i>,Thu Apr 08 2021 11:02:03 GMT-0700 (Pacific Daylight Time),NA,NA,39,NA,No,1,NA,elizabeth,1,NA,NA,yes,NA,"<b> Speaker A: ""The Empire State Building is tall.""</b>",NA,NA,NA,32,buildings.,NA,graduated_college,NA,comp_class_warmup,English,male,NA,In the main trials you will be asked to rephrase something a person said. The utterance will contain a word that is <i>relative</i> and your task is to figure out what it is relative to. <br /> <br /> For example: <br />,1,1617904923915,3,NA,The Empire State Building is tall relative to other,1,"buildings, skyscrapers, houses, constructions (choose one)",NA,comp_class_warmup,NA,NA
2767,<i>What do you think Speaker A meant? </i>,Thu Apr 08 2021 11:02:03 GMT-0700 (Pacific Daylight Time),NA,NA,39,NA,No,1,NA,elizabeth,1,NA,NA,yes,NA,"<b> Speaker A: ""The Empire State Building is tall.""</b>",NA,NA,NA,32,buildings.,NA,graduated_college,NA,comp_class_warmup,English,male,NA,In the main trials you will be asked to rephrase something a person said. The utterance will contain a word that is <i>relative</i> and your task is to figure out what it is relative to. <br /> <br /> For example: <br />,1,1617904923915,4,NA,The Empire State Building is tall relative to other,1,"buildings, skyscrapers, houses, constructions (choose one)",NA,comp_class_warmup,NA,NA
2767,<i>What do you think Speaker A meant? </i>,Thu Apr 08 2021 11:02:03 GMT-0700 (Pacific Daylight Time),NA,NA,39,NA,No,1,NA,elizabeth,1,NA,NA,yes,NA,"<b> Speaker A: ""The Empire State Building is tall.""</b>",NA,NA,NA,32,buildings.,NA,graduated_college,NA,comp_class_warmup,English,male,NA,In the main trials you will be asked to rephrase something a person said. The utterance will contain a word that is <i>relative</i> and your task is to figure out what it is relative to. <br /> <br /> For example: <br />,1,1617904923915,5,NA,The Empire State Building is tall relative to other,1,"buildings, skyscrapers, houses, constructions (choose one)",NA,comp_class_warmup,NA,NA
2767,<i>What do you think Speaker A meant? </i>,Thu Apr 08 2021 11:02:03 GMT-0700 (Pacific Daylight Time),NA,NA,39,NA,No,1,NA,elizabeth,1,NA,NA,yes,NA,"<b> Speaker A: ""The Empire State Building is tall.""</b>",NA,NA,NA,32,buildings,NA,graduated_college,NA,comp_class_warmup,English,male,NA,In the main trials you will be asked to rephrase something a person said. The utterance will contain a word that is <i>relative</i> and your task is to figure out what it is relative to. <br /> <br /> For example: <br />,1,1617904923915,6,NA,The Empire State Building is tall relative to other,1,"buildings, skyscrapers, houses, constructions (choose one)",NA,comp_class_warmup,NA,NA
2767,What do you think your friend is saying it is small relative to?,Thu Apr 08 2021 11:02:03 GMT-0700 (Pacific Daylight Time),images/pug-gift.png,images/dog-parade-basic2-gift.png,39,critical,No,1,dogs2,elizabeth,NA,pugs,dogs,yes,Your friend goes ahead of you. You see your friend in the distance:,NA,pred,present,pug,32,pugs,NA,graduated_college,small,NA,English,male,44888,You and your friend are at a pet store and you see the following:,1,1617904923915,NA,dogs2_present,It is small relative to other,1,NA,congruent,custom_main_text1,small,Your friend says: <br/><b>That present is a small pug.</b>
2767,What do you think your friend is saying it is big relative to?,Thu Apr 08 2021 11:02:03 GMT-0700 (Pacific Daylight Time),images/tuna_net.png,images/fish-parade-basic.png,39,critical,No,1,fish,elizabeth,NA,tunas,fish,yes,Your friend goes ahead of you. You see your friend in the distance:,NA,pred,rescue,tuna,32,tunas,NA,graduated_college,big,NA,English,male,31647,You visit your friend who works as a marine biologist and you see the following:,2,1617904923915,NA,fish_rescue,It is big relative to other,1,NA,congruent,custom_main_text1,big,Your friend says: <br/><b>That rescue is a big tuna.</b>
2767,What do you think your friend is saying it is big relative to?,Thu Apr 08 2021 11:02:03 GMT-0700 (Pacific Daylight Time),images/great-dane-gift.png,images/dog-parade-basic2-gift.png,39,critical,No,1,dogs2,elizabeth,NA,dogs,Great Danes,yes,Your friend goes ahead of you. You see your friend in the distance:,NA,subj,present,Great Dane,32,dogs,NA,graduated_college,big,NA,English,male,9285,You and your friend are at a pet store and you see the following:,3,1617904923915,NA,dogs2_present,It is big relative to other,1,NA,congruent,custom_main_text1,big,Your friend says: <br/><b>That big Great Dane is a present.</b>
2767,What do you think your friend is saying it is small relative to?,Thu Apr 08 2021 11:02:03 GMT-0700 (Pacific Daylight Time),images/clownfish_net.png,images/fish-parade-basic.png,39,critical,No,1,fish,elizabeth,NA,clownfish,fish,yes,Your friend goes ahead of you. You see your friend in the distance:,NA,subj,rescue,clownfish,32,fish,NA,graduated_college,small,NA,English,male,4640,You visit your friend who works as a marine biologist and you see the following:,4,1617904923915,NA,fish_rescue,It is small relative to other,1,NA,congruent,custom_main_text1,small,Your friend says: <br/><b>That small clownfish is a rescue.</b>
2767,What do you think your friend is saying it is big relative to?,Thu Apr 08 2021 11:02:03 GMT-0700 (Pacific Daylight Time),images/redwood_sign.png,images/tree-parade-basic.png,39,critical,No,1,trees,elizabeth,NA,trees,redwoods,yes,Your friend goes ahead of you. You see your friend in the distance:,NA,subj,landmark,redwood,32,trees,NA,graduated_college,big,NA,English,male,32686,You and your friend walk to your friend's cabin in a park for the first time. You want to memorize the path and you see the following:,5,1617904923915,NA,trees_landmark,It is big relative to other,1,NA,congruent,custom_main_text1,big,Your friend says: <br/><b>That big redwood is a landmark.</b>
2767,What do you think your friend is saying it is small relative to?,Thu Apr 08 2021 11:02:03 GMT-0700 (Pacific Daylight Time),images/stripmall-landmark.png,images/buildings-parade-basic.png,39,critical,No,1,buildings,elizabeth,NA,buildings,stripmalls,yes,Your friend goes ahead of you. You see your friend in the distance:,NA,subj,landmark,stripmall,32,buildings,NA,graduated_college,small,NA,English,male,11481,You visit your friend who lives in another city. You take a walk and you see the following:,6,1617904923915,NA,buildings_landmark,It is small relative to other,1,NA,congruent,custom_main_text1,small,Your friend says: <br/><b>That small stripmall is a landmark.</b>
2767,What do you think your friend is saying it is small relative to?,Thu Apr 08 2021 11:02:03 GMT-0700 (Pacific Daylight Time),images/chihuahua-rescue.png,images/dog-parade-basic-rescue.png,39,critical,No,1,dogs1,elizabeth,NA,dogs,chihuahuas,yes,Your friend goes ahead of you. You see your friend in the distance:,NA,pred,rescue,chihuahua,32,dogs,NA,graduated_college,small,NA,English,male,16629,You visit your friend who works at an animal shelter and you see the following:,7,1617904923915,NA,dogs1_rescue,It is small relative to other,1,NA,congruent,custom_main_text1,small,Your friend says: <br/><b>That rescue is a small chihuahua.</b>
2767,What do you think your friend is saying it is big relative to?,Thu Apr 08 2021 11:02:03 GMT-0700 (Pacific Daylight Time),images/sunflower-landmark.png,images/flower-parade-basic-landmark.png,39,critical,No,1,flowers,elizabeth,NA,sunflowers,flowers,yes,Your friend goes ahead of you. You see your friend in the distance:,NA,pred,landmark,sunflower,32,flowers,NA,graduated_college,big,NA,English,male,9153,You and your friend walk to a cabin you are renting for the weekend for the first time. You go along the path and you see the following:,8,1617904923915,NA,flowers_landmark,It is big relative to other,1,NA,congruent,custom_main_text1,big,Your friend says: <br/><b>That landmark is a big sunflower.</b>
2767,What do you think your friend is saying it is big relative to?,Thu Apr 08 2021 11:02:03 GMT-0700 (Pacific Daylight Time),images/doberman-rescue.png,images/dog-parade-basic-rescue.png,39,critical,No,1,dogs1,elizabeth,NA,dobermen,dogs,yes,Your friend goes ahead of you. You see your friend in the distance:,NA,subj,rescue,doberman,32,dobermen,NA,graduated_college,big,NA,English,male,8784,You visit your friend who works at an animal shelter and you see the following:,9,1617904923915,NA,dogs1_rescue,It is big relative to other,1,NA,congruent,custom_main_text1,big,Your friend says: <br/><b>That big doberman is a rescue.</b>
2767,What do you think your friend is saying it is small relative to?,Thu Apr 08 2021 11:02:03 GMT-0700 (Pacific Daylight Time),images/bonsai_stick.png,images/tree-parade-basic.png,39,critical,No,1,trees,elizabeth,NA,trees,bonsais,yes,Your friend goes ahead of you. You see your friend in the distance:,NA,pred,landmark,bonsai,32,bonsais,NA,graduated_college,small,NA,English,male,87137,You and your friend walk to your friend's cabin in a park for the first time. You want to memorize the path and you see the following:,10,1617904923915,NA,trees_landmark,It is small relative to other,1,NA,congruent,custom_main_text1,small,Your friend says: <br/><b>That landmark is a small bonsai.</b>
2767,What do you think your friend is saying it is big relative to?,Thu Apr 08 2021 11:02:03 GMT-0700 (Pacific Daylight Time),images/skyscraper-landmark.png,images/buildings-parade-basic.png,39,critical,No,1,buildings,elizabeth,NA,skyscrapers,buildings,yes,Your friend goes ahead of you. You see your friend in the distance:,NA,pred,landmark,skyscraper,32,buildings,NA,graduated_college,big,NA,English,male,5316,You visit your friend who lives in another city. You take a walk and you see the following:,11,1617904923915,NA,buildings_landmark,It is big relative to other,1,NA,congruent,custom_main_text1,big,Your friend says: <br/><b>That landmark is a big skyscraper.</b>
2767,What do you think your friend is saying it is small relative to?,Thu Apr 08 2021 11:02:03 GMT-0700 (Pacific Daylight Time),images/dandelion-landmark.png,images/flower-parade-basic-landmark.png,39,critical,No,1,flowers,elizabeth,NA,flowers,dandelions,yes,Your friend goes ahead of you. You see your friend in the distance:,NA,subj,landmark,dandelion,32,flowers,NA,graduated_college,small,NA,English,male,4643,You and your friend walk to a cabin you are renting for the weekend for the first time. You go along the path and you see the following:,12,1617904923915,NA,flowers_landmark,It is small relative to other,1,NA,congruent,custom_main_text1,small,Your friend says: <br/><b>That small dandelion is a landmark.</b>
2766,<i>What do you think Speaker A meant? </i>,Thu Apr 08 2021 14:09:14 GMT-0400 (Eastern Daylight Time),NA,NA,39,NA,No,2,NA,Linda,1,NA,NA,yes,NA,"<b> Speaker A: ""The Empire State Building is tall.""</b>",NA,NA,NA,32,buildings,"None, thanks for asking",graduated_college,NA,comp_class_warmup,English,female,NA,In the main trials you will be asked to rephrase something a person said. The utterance will contain a word that is <i>relative</i> and your task is to figure out what it is relative to. <br /> <br /> For example: <br />,1,1617905354097,1,NA,The Empire State Building is tall relative to other,1.5,"buildings, skyscrapers, houses, constructions (choose one)",NA,comp_class_warmup,NA,NA
2766,What do you think your friend is saying it is small relative to?,Thu Apr 08 2021 14:09:14 GMT-0400 (Eastern Daylight Time),images/hummingbird.png,images/bird-parade-basic.png,39,critical,No,2,birds,Linda,NA,birds,hummingbirds,yes,Your friend goes ahead of you. You see your friend in the distance:,NA,subj,rescue,hummingbird,32,birds,"None, thanks for asking",graduated_college,small,NA,English,female,9833,You visit your friend who works at an animal shelter and you see the following:,1,1617905354097,NA,birds_rescue,It is small relative to other,1.5,NA,congruent,custom_main_text1,small,Your friend says: <br/><b>That small hummingbird is a rescue.</b>
2766,What do you think your friend is saying it is big relative to?,Thu Apr 08 2021 14:09:14 GMT-0400 (Eastern Daylight Time),images/great-dane.png,images/dog-parade-basic2.png,39,critical,No,2,dogs2,Linda,NA,dogs,Great Danes,yes,Your friend goes ahead of you. You see your friend in the distance:,NA,subj,prize-winner,Great Dane,32,Great,"None, thanks for asking",graduated_college,big,NA,English,female,5271,You and your friend are at a pet show and you see the following:,2,1617905354097,NA,dogs2_prize,It is big relative to other,1.5,NA,congruent,custom_main_text1,big,Your friend says: <br/><b>That big Great Dane is a prize-winner.</b>
2766,What do you think your friend is saying it is big relative to?,Thu Apr 08 2021 14:09:14 GMT-0400 (Eastern Daylight Time),images/eagle.png,images/bird-parade-basic.png,39,critical,No,2,birds,Linda,NA,birds,eagles,yes,Your friend goes ahead of you. You see your friend in the distance:,NA,pred,rescue,eagle,32,birds,"None, thanks for asking",graduated_college,big,NA,English,female,4460,You visit your friend who works at an animal shelter and you see the following:,3,1617905354097,NA,birds_rescue,It is big relative to other,1.5,NA,congruent,custom_main_text1,big,Your friend says: <br/><b>That rescue is a big eagle.</b>
2766,What do you think your friend is saying it is big relative to?,Thu Apr 08 2021 14:09:14 GMT-0400 (Eastern Daylight Time),images/sunflower-landmark.png,images/flower-parade-basic-landmark.png,39,critical,No,2,flowers,Linda,NA,sunflowers,flowers,yes,Your friend goes ahead of you. You see your friend in the distance:,NA,pred,landmark,sunflower,32,sunflowers,"None, thanks for asking",graduated_college,big,NA,English,female,13510,You and your friend walk to a cabin you are renting for the weekend for the first time. You go along the path and you see the following:,4,1617905354097,NA,flowers_landmark,It is big relative to other,1.5,NA,congruent,custom_main_text1,big,Your friend says: <br/><b>That landmark is a big sunflower.</b>
2766,What do you think your friend is saying it is small relative to?,Thu Apr 08 2021 14:09:14 GMT-0400 (Eastern Daylight Time),images/clownfish_net.png,images/fish-parade-basic.png,39,critical,No,2,fish,Linda,NA,clownfish,fish,yes,Your friend goes ahead of you. You see your friend in the distance:,NA,subj,rescue,clownfish,32,clownfish,"None, thanks for asking",graduated_college,small,NA,English,female,15318,You visit your friend who works as a marine biologist and you see the following:,5,1617905354097,NA,fish_rescue,It is small relative to other,1.5,NA,congruent,custom_main_text1,small,Your friend says: <br/><b>That small clownfish is a rescue.</b>
2766,What do you think your friend is saying it is big relative to?,Thu Apr 08 2021 14:09:14 GMT-0400 (Eastern Daylight Time),images/redwood_sign.png,images/tree-parade-basic.png,39,critical,No,2,trees,Linda,NA,trees,redwoods,yes,Your friend goes ahead of you. You see your friend in the distance:,NA,subj,landmark,redwood,32,redwoods,"None, thanks for asking",graduated_college,big,NA,English,female,6974,You and your friend walk to your friend's cabin in a park for the first time. You want to memorize the path and you see the following:,6,1617905354097,NA,trees_landmark,It is big relative to other,1.5,NA,congruent,custom_main_text1,big,Your friend says: <br/><b>That big redwood is a landmark.</b>
2766,What do you think your friend is saying it is small relative to?,Thu Apr 08 2021 14:09:14 GMT-0400 (Eastern Daylight Time),images/dandelion-landmark.png,images/flower-parade-basic-landmark.png,39,critical,No,2,flowers,Linda,NA,dandelions,flowers,yes,Your friend goes ahead of you. You see your friend in the distance:,NA,subj,landmark,dandelion,32,dandelions,"None, thanks for asking",graduated_college,small,NA,English,female,4685,You and your friend walk to a cabin you are renting for the weekend for the first time. You go along the path and you see the following:,7,1617905354097,NA,flowers_landmark,It is small relative to other,1.5,NA,congruent,custom_main_text1,small,Your friend says: <br/><b>That small dandelion is a landmark.</b>
2766,What do you think your friend is saying it is big relative to?,Thu Apr 08 2021 14:09:14 GMT-0400 (Eastern Daylight Time),images/doberman.png,images/dog-parade-basic.png,39,critical,No,2,dogs1,Linda,NA,dobermen,dogs,yes,Your friend goes ahead of you. You see your friend in the distance:,NA,subj,service-animal,doberman,32,dobermen,"None, thanks for asking",graduated_college,big,NA,English,female,6524,You and your friend are at an animal training ground and you see the following:,8,1617905354097,NA,dogs1_service,It is big relative to other,1.5,NA,congruent,custom_main_text1,big,Your friend says: <br/><b>That big doberman is a service-animal.</b>
2766,What do you think your friend is saying it is small relative to?,Thu Apr 08 2021 14:09:14 GMT-0400 (Eastern Daylight Time),images/bonsai_stick.png,images/tree-parade-basic.png,39,critical,No,2,trees,Linda,NA,trees,bonsais,yes,Your friend goes ahead of you. You see your friend in the distance:,NA,pred,landmark,bonsai,32,bonsais,"None, thanks for asking",graduated_college,small,NA,English,female,12114,You and your friend walk to your friend's cabin in a park for the first time. You want to memorize the path and you see the following:,9,1617905354097,NA,trees_landmark,It is small relative to other,1.5,NA,congruent,custom_main_text1,small,Your friend says: <br/><b>That landmark is a small bonsai.</b>
2766,What do you think your friend is saying it is big relative to?,Thu Apr 08 2021 14:09:14 GMT-0400 (Eastern Daylight Time),images/tuna_net.png,images/fish-parade-basic.png,39,critical,No,2,fish,Linda,NA,tunas,fish,yes,Your friend goes ahead of you. You see your friend in the distance:,NA,pred,rescue,tuna,32,fish,"None, thanks for asking",graduated_college,big,NA,English,female,7352,You visit your friend who works as a marine biologist and you see the following:,10,1617905354097,NA,fish_rescue,It is big relative to other,1.5,NA,congruent,custom_main_text1,big,Your friend says: <br/><b>That rescue is a big tuna.</b>
2766,What do you think your friend is saying it is small relative to?,Thu Apr 08 2021 14:09:14 GMT-0400 (Eastern Daylight Time),images/pug.png,images/dog-parade-basic2.png,39,critical,No,2,dogs2,Linda,NA,pugs,dogs,yes,Your friend goes ahead of you. You see your friend in the distance:,NA,pred,prize-winner,pug,32,pugs,"None, thanks for asking",graduated_college,small,NA,English,female,7330,You and your friend are at a pet show and you see the following:,11,1617905354097,NA,dogs2_prize,It is small relative to other,1.5,NA,congruent,custom_main_text1,small,Your friend says: <br/><b>That prize-winner is a small pug.</b>
2766,What do you think your friend is saying it is small relative to?,Thu Apr 08 2021 14:09:14 GMT-0400 (Eastern Daylight Time),images/chihuahua.png,images/dog-parade-basic.png,39,critical,No,2,dogs1,Linda,NA,dogs,chihuahuas,yes,Your friend goes ahead of you. You see your friend in the distance:,NA,pred,service-animal,chihuahua,32,dogs,"None, thanks for asking",graduated_college,small,NA,English,female,4529,You and your friend are at an animal training ground and you see the following:,12,1617905354097,NA,dogs1_service,It is small relative to other,1.5,NA,congruent,custom_main_text1,small,Your friend says: <br/><b>That service-animal is a small chihuahua.</b>
2765,<i>What do you think Speaker A meant? </i>,Thu Apr 08 2021 13:04:02 GMT-0500 (Central Daylight Time),NA,NA,39,NA,no,1,NA,Elizabeth,1,NA,NA,yes,NA,"<b> Speaker A: ""The Empire State Building is tall.""</b>",NA,NA,NA,40,buildings,NA,some_college,NA,comp_class_warmup,English,male,NA,In the main trials you will be asked to rephrase something a person said. The utterance will contain a word that is <i>relative</i> and your task is to figure out what it is relative to. <br /> <br /> For example: <br />,1,1617905042082,1,NA,The Empire State Building is tall relative to other,1000,"buildings, skyscrapers, houses, constructions (choose one)",NA,comp_class_warmup,NA,NA
2765,What do you think your friend is saying it is small relative to?,Thu Apr 08 2021 13:04:02 GMT-0500 (Central Daylight Time),images/dandelion.png,images/flower-parade-basic.png,39,critical,no,1,flowers,Elizabeth,NA,dandelions,flowers,yes,Your friend goes ahead of you. You see your friend in the distance:,NA,subj,present,dandelion,40,flowers,NA,some_college,small,NA,English,male,47469,You and your friend are at a garden store and you see the following:,1,1617905042082,NA,flowers_present,It is small relative to other,1000,NA,congruent,custom_main_text1,small,Your friend says: <br/><b>That small dandelion is a present.</b>
2765,What do you think your friend is saying it is small relative to?,Thu Apr 08 2021 13:04:02 GMT-0500 (Central Daylight Time),images/chihuahua.png,images/dog-parade-basic.png,39,critical,no,1,dogs1,Elizabeth,NA,dogs,chihuahuas,yes,Your friend goes ahead of you. You see your friend in the distance:,NA,subj,service-animal,chihuahua,40,dogs,NA,some_college,small,NA,English,male,16317,You and your friend are at an animal training ground and you see the following:,2,1617905042082,NA,dogs1_service,It is small relative to other,1000,NA,congruent,custom_main_text1,small,Your friend says: <br/><b>That small chihuahua is a service-animal.</b>
2765,What do you think your friend is saying it is big relative to?,Thu Apr 08 2021 13:04:02 GMT-0500 (Central Daylight Time),images/great-dane.png,images/dog-parade-basic2.png,39,critical,no,1,dogs2,Elizabeth,NA,Great Danes,dogs,yes,Your friend goes ahead of you. You see your friend in the distance:,NA,pred,prize-winner,Great Dane,40,Great,NA,some_college,big,NA,English,male,12274,You and your friend are at a pet show and you see the following:,3,1617905042082,NA,dogs2_prize,It is big relative to other,1000,NA,congruent,custom_main_text1,big,Your friend says: <br/><b>That prize-winner is a big Great Dane.</b>
2765,What do you think your friend is saying it is big relative to?,Thu Apr 08 2021 13:04:02 GMT-0500 (Central Daylight Time),images/tuna_net.png,images/fish-parade-basic.png,39,critical,no,1,fish,Elizabeth,NA,fish,tunas,yes,Your friend goes ahead of you. You see your friend in the distance:,NA,subj,rescue,tuna,40,fish,NA,some_college,big,NA,English,male,17523,You visit your friend who works as a marine biologist and you see the following:,4,1617905042082,NA,fish_rescue,It is big relative to other,1000,NA,congruent,custom_main_text1,big,Your friend says: <br/><b>That big tuna is a rescue.</b>
2765,What do you think your friend is saying it is big relative to?,Thu Apr 08 2021 13:04:02 GMT-0500 (Central Daylight Time),images/doberman.png,images/dog-parade-basic.png,39,critical,no,1,dogs1,Elizabeth,NA,dobermen,dogs,yes,Your friend goes ahead of you. You see your friend in the distance:,NA,pred,service-animal,doberman,40,dogs,NA,some_college,big,NA,English,male,20804,You and your friend are at an animal training ground and you see the following:,5,1617905042082,NA,dogs1_service,It is big relative to other,1000,NA,congruent,custom_main_text1,big,Your friend says: <br/><b>That service-animal is a big doberman.</b>
2765,What do you think your friend is saying it is small relative to?,Thu Apr 08 2021 13:04:02 GMT-0500 (Central Daylight Time),images/clownfish_net.png,images/fish-parade-basic.png,39,critical,no,1,fish,Elizabeth,NA,clownfish,fish,yes,Your friend goes ahead of you. You see your friend in the distance:,NA,pred,rescue,clownfish,40,clownfish,NA,some_college,small,NA,English,male,16311,You visit your friend who works as a marine biologist and you see the following:,6,1617905042082,NA,fish_rescue,It is small relative to other,1000,NA,congruent,custom_main_text1,small,Your friend says: <br/><b>That rescue is a small clownfish.</b>
2765,What do you think your friend is saying it is small relative to?,Thu Apr 08 2021 13:04:02 GMT-0500 (Central Daylight Time),images/bonsai_stick.png,images/tree-parade-basic.png,39,critical,no,1,trees,Elizabeth,NA,trees,bonsais,yes,Your friend goes ahead of you. You see your friend in the distance:,NA,pred,landmark,bonsai,40,trees,NA,some_college,small,NA,English,male,23640,You and your friend walk to your friend's cabin in a park for the first time. You want to memorize the path and you see the following:,7,1617905042082,NA,trees_landmark,It is small relative to other,1000,NA,congruent,custom_main_text1,small,Your friend says: <br/><b>That landmark is a small bonsai.</b>
2765,What do you think your friend is saying it is big relative to?,Thu Apr 08 2021 13:04:02 GMT-0500 (Central Daylight Time),images/eagle.png,images/bird-parade-basic.png,39,critical,no,1,birds,Elizabeth,NA,eagles,birds,yes,Your friend goes ahead of you. You see your friend in the distance:,NA,subj,rescue,eagle,40,eagles,NA,some_college,big,NA,English,male,16922,You visit your friend who works at an animal shelter and you see the following:,8,1617905042082,NA,birds_rescue,It is big relative to other,1000,NA,congruent,custom_main_text1,big,Your friend says: <br/><b>That big eagle is a rescue.</b>
2765,What do you think your friend is saying it is big relative to?,Thu Apr 08 2021 13:04:02 GMT-0500 (Central Daylight Time),images/sunflower.png,images/flower-parade-basic.png,39,critical,no,1,flowers,Elizabeth,NA,flowers,sunflowers,yes,Your friend goes ahead of you. You see your friend in the distance:,NA,pred,present,sunflower,40,sunflowers,NA,some_college,big,NA,English,male,18317,You and your friend are at a garden store and you see the following:,9,1617905042082,NA,flowers_present,It is big relative to other,1000,NA,congruent,custom_main_text1,big,Your friend says: <br/><b>That present is a big sunflower.</b>
2765,What do you think your friend is saying it is small relative to?,Thu Apr 08 2021 13:04:02 GMT-0500 (Central Daylight Time),images/hummingbird.png,images/bird-parade-basic.png,39,critical,no,1,birds,Elizabeth,NA,birds,hummingbirds,yes,Your friend goes ahead of you. You see your friend in the distance:,NA,pred,rescue,hummingbird,40,birds,NA,some_college,small,NA,English,male,11187,You visit your friend who works at an animal shelter and you see the following:,10,1617905042082,NA,birds_rescue,It is small relative to other,1000,NA,congruent,custom_main_text1,small,Your friend says: <br/><b>That rescue is a small hummingbird.</b>
2765,What do you think your friend is saying it is small relative to?,Thu Apr 08 2021 13:04:02 GMT-0500 (Central Daylight Time),images/pug.png,images/dog-parade-basic2.png,39,critical,no,1,dogs2,Elizabeth,NA,pugs,dogs,yes,Your friend goes ahead of you. You see your friend in the distance:,NA,subj,prize-winner,pug,40,pugs,NA,some_college,small,NA,English,male,9862,You and your friend are at a pet show and you see the following:,11,1617905042082,NA,dogs2_prize,It is small relative to other,1000,NA,congruent,custom_main_text1,small,Your friend says: <br/><b>That small pug is a prize-winner.</b>
2765,What do you think your friend is saying it is big relative to?,Thu Apr 08 2021 13:04:02 GMT-0500 (Central Daylight Time),images/redwood_sign.png,images/tree-parade-basic.png,39,critical,no,1,trees,Elizabeth,NA,redwoods,trees,yes,Your friend goes ahead of you. You see your friend in the distance:,NA,subj,landmark,redwood,40,trees,NA,some_college,big,NA,English,male,7149,You and your friend walk to your friend's cabin in a park for the first time. You want to memorize the path and you see the following:,12,1617905042082,NA,trees_landmark,It is big relative to other,1000,NA,congruent,custom_main_text1,big,Your friend says: <br/><b>That big redwood is a landmark.</b>
2764,<i>What do you think Speaker A meant? </i>,Thu Apr 08 2021 14:06:45 GMT-0400 (Eastern Daylight Time),NA,NA,39,NA,No,1,NA,jennifer,1,NA,NA,yes,NA,"<b> Speaker A: ""The Empire State Building is tall.""</b>",NA,NA,NA,20,buildings,NA,some_college,NA,comp_class_warmup,English,other,NA,In the main trials you will be asked to rephrase something a person said. The utterance will contain a word that is <i>relative</i> and your task is to figure out what it is relative to. <br /> <br /> For example: <br />,1,1617905205598,1,NA,The Empire State Building is tall relative to other,1,"buildings, skyscrapers, houses, constructions (choose one)",NA,comp_class_warmup,NA,NA
2764,What do you think your friend is saying it is big relative to?,Thu Apr 08 2021 14:06:45 GMT-0400 (Eastern Daylight Time),images/tuna_net.png,images/fish-parade-basic.png,39,critical,No,1,fish,jennifer,NA,fish,tunas,yes,Your friend goes ahead of you. You see your friend in the distance:,NA,pred,rescue,tuna,20,tunas,NA,some_college,big,NA,English,other,19743,You visit your friend who works as a marine biologist and you see the following:,1,1617905205598,NA,fish_rescue,It is big relative to other,1,NA,congruent,custom_main_text1,big,Your friend says: <br/><b>That rescue is a big tuna.</b>
2764,What do you think your friend is saying it is small relative to?,Thu Apr 08 2021 14:06:45 GMT-0400 (Eastern Daylight Time),images/pug.png,images/dog-parade-basic2.png,39,critical,No,1,dogs2,jennifer,NA,pugs,dogs,yes,Your friend goes ahead of you. You see your friend in the distance:,NA,pred,prize-winner,pug,20,pugs,NA,some_college,small,NA,English,other,12139,You and your friend are at a pet show and you see the following:,2,1617905205598,NA,dogs2_prize,It is small relative to other,1,NA,congruent,custom_main_text1,small,Your friend says: <br/><b>That prize-winner is a small pug.</b>
2764,What do you think your friend is saying it is big relative to?,Thu Apr 08 2021 14:06:45 GMT-0400 (Eastern Daylight Time),images/eagle.png,images/bird-parade-basic.png,39,critical,No,1,birds,jennifer,NA,birds,eagles,yes,Your friend goes ahead of you. You see your friend in the distance:,NA,pred,rescue,eagle,20,eagles,NA,some_college,big,NA,English,other,7008,You visit your friend who works at an animal shelter and you see the following:,3,1617905205598,NA,birds_rescue,It is big relative to other,1,NA,congruent,custom_main_text1,big,Your friend says: <br/><b>That rescue is a big eagle.</b>
2764,What do you think your friend is saying it is big relative to?,Thu Apr 08 2021 14:06:45 GMT-0400 (Eastern Daylight Time),images/doberman.png,images/dog-parade-basic.png,39,critical,No,1,dogs1,jennifer,NA,dobermen,dogs,yes,Your friend goes ahead of you. You see your friend in the distance:,NA,subj,service-animal,doberman,20,dobermen,NA,some_college,big,NA,English,other,6627,You and your friend are at an animal training ground and you see the following:,4,1617905205598,NA,dogs1_service,It is big relative to other,1,NA,congruent,custom_main_text1,big,Your friend says: <br/><b>That big doberman is a service-animal.</b>
2764,What do you think your friend is saying it is big relative to?,Thu Apr 08 2021 14:06:45 GMT-0400 (Eastern Daylight Time),images/skyscraper-landmark.png,images/buildings-parade-basic.png,39,critical,No,1,buildings,jennifer,NA,skyscrapers,buildings,yes,Your friend goes ahead of you. You see your friend in the distance:,NA,subj,landmark,skyscraper,20,buildings,NA,some_college,big,NA,English,other,18596,You visit your friend who lives in another city. You take a walk and you see the following:,5,1617905205598,NA,buildings_landmark,It is big relative to other,1,NA,congruent,custom_main_text1,big,Your friend says: <br/><b>That big skyscraper is a landmark.</b>
2764,What do you think your friend is saying it is small relative to?,Thu Apr 08 2021 14:06:45 GMT-0400 (Eastern Daylight Time),images/hummingbird.png,images/bird-parade-basic.png,39,critical,No,1,birds,jennifer,NA,birds,hummingbirds,yes,Your friend goes ahead of you. You see your friend in the distance:,NA,subj,rescue,hummingbird,20,hummingbirds,NA,some_college,small,NA,English,other,7695,You visit your friend who works at an animal shelter and you see the following:,6,1617905205598,NA,birds_rescue,It is small relative to other,1,NA,congruent,custom_main_text1,small,Your friend says: <br/><b>That small hummingbird is a rescue.</b>
2764,What do you think your friend is saying it is small relative to?,Thu Apr 08 2021 14:06:45 GMT-0400 (Eastern Daylight Time),images/clownfish_net.png,images/fish-parade-basic.png,39,critical,No,1,fish,jennifer,NA,clownfish,fish,yes,Your friend goes ahead of you. You see your friend in the distance:,NA,subj,rescue,clownfish,20,fish,NA,some_college,small,NA,English,other,10788,You visit your friend who works as a marine biologist and you see the following:,7,1617905205598,NA,fish_rescue,It is small relative to other,1,NA,congruent,custom_main_text1,small,Your friend says: <br/><b>That small clownfish is a rescue.</b>
2764,What do you think your friend is saying it is small relative to?,Thu Apr 08 2021 14:06:45 GMT-0400 (Eastern Daylight Time),images/chihuahua.png,images/dog-parade-basic.png,39,critical,No,1,dogs1,jennifer,NA,dogs,chihuahuas,yes,Your friend goes ahead of you. You see your friend in the distance:,NA,pred,service-animal,chihuahua,20,chihuahuas,NA,some_college,small,NA,English,other,12274,You and your friend are at an animal training ground and you see the following:,8,1617905205598,NA,dogs1_service,It is small relative to other,1,NA,congruent,custom_main_text1,small,Your friend says: <br/><b>That service-animal is a small chihuahua.</b>
2764,What do you think your friend is saying it is small relative to?,Thu Apr 08 2021 14:06:45 GMT-0400 (Eastern Daylight Time),images/pug-gift.png,images/dog-parade-basic2-gift.png,39,critical,No,1,dogs2,jennifer,NA,dogs,pugs,yes,Your friend goes ahead of you. You see your friend in the distance:,NA,subj,present,pug,20,pugs,NA,some_college,small,NA,English,other,5603,You and your friend are at a pet store and you see the following:,9,1617905205598,NA,dogs2_present,It is small relative to other,1,NA,congruent,custom_main_text1,small,Your friend says: <br/><b>That small pug is a present.</b>
2764,What do you think your friend is saying it is big relative to?,Thu Apr 08 2021 14:06:45 GMT-0400 (Eastern Daylight Time),images/great-dane.png,images/dog-parade-basic2.png,39,critical,No,1,dogs2,jennifer,NA,dogs,Great Danes,yes,Your friend goes ahead of you. You see your friend in the distance:,NA,subj,prize-winner,Great Dane,20,Great,NA,some_college,big,NA,English,other,7526,You and your friend are at a pet show and you see the following:,10,1617905205598,NA,dogs2_prize,It is big relative to other,1,NA,congruent,custom_main_text1,big,Your friend says: <br/><b>That big Great Dane is a prize-winner.</b>
2764,What do you think your friend is saying it is big relative to?,Thu Apr 08 2021 14:06:45 GMT-0400 (Eastern Daylight Time),images/great-dane-gift.png,images/dog-parade-basic2-gift.png,39,critical,No,1,dogs2,jennifer,NA,Great Danes,dogs,yes,Your friend goes ahead of you. You see your friend in the distance:,NA,pred,present,Great Dane,20,Great,NA,some_college,big,NA,English,other,15356,You and your friend are at a pet store and you see the following:,11,1617905205598,NA,dogs2_present,It is big relative to other,1,NA,congruent,custom_main_text1,big,Your friend says: <br/><b>That present is a big Great Dane.</b>
2764,What do you think your friend is saying it is small relative to?,Thu Apr 08 2021 14:06:45 GMT-0400 (Eastern Daylight Time),images/stripmall-landmark.png,images/buildings-parade-basic.png,39,critical,No,1,buildings,jennifer,NA,buildings,stripmalls,yes,Your friend goes ahead of you. You see your friend in the distance:,NA,pred,landmark,stripmall,20,stripmalls,NA,some_college,small,NA,English,other,9911,You visit your friend who lives in another city. You take a walk and you see the following:,12,1617905205598,NA,buildings_landmark,It is small relative to other,1,NA,congruent,custom_main_text1,small,Your friend says: <br/><b>That landmark is a small stripmall.</b>
2763,<i>What do you think Speaker A meant? </i>,Thu Apr 08 2021 11:04:49 GMT-0700 (Pacific Daylight Time),NA,NA,39,NA,None,2,NA,Jennifer,1,NA,NA,yes,NA,"<b> Speaker A: ""The Empire State Building is tall.""</b>",NA,NA,NA,31,buildings,NA,higher_degree,NA,comp_class_warmup,english,female,NA,In the main trials you will be asked to rephrase something a person said. The utterance will contain a word that is <i>relative</i> and your task is to figure out what it is relative to. <br /> <br /> For example: <br />,1,1617905089338,1,NA,The Empire State Building is tall relative to other,0.75,"buildings, skyscrapers, houses, constructions (choose one)",NA,comp_class_warmup,NA,NA
2763,What do you think your friend is saying it is big relative to?,Thu Apr 08 2021 11:04:49 GMT-0700 (Pacific Daylight Time),images/skyscraper-landmark.png,images/buildings-parade-basic.png,39,critical,None,2,buildings,Jennifer,NA,buildings,skyscrapers,yes,Your friend goes ahead of you. You see your friend in the distance:,NA,pred,landmark,skyscraper,31,skyscrapers,NA,higher_degree,big,NA,english,female,13548,You visit your friend who lives in another city. You take a walk and you see the following:,1,1617905089338,NA,buildings_landmark,It is big relative to other,0.75,NA,congruent,custom_main_text1,big,Your friend says: <br/><b>That landmark is a big skyscraper.</b>
2763,What do you think your friend is saying it is small relative to?,Thu Apr 08 2021 11:04:49 GMT-0700 (Pacific Daylight Time),images/hummingbird.png,images/bird-parade-basic.png,39,critical,None,2,birds,Jennifer,NA,birds,hummingbirds,yes,Your friend goes ahead of you. You see your friend in the distance:,NA,pred,rescue,hummingbird,31,hummingbirds,NA,higher_degree,small,NA,english,female,11322,You visit your friend who works at an animal shelter and you see the following:,2,1617905089338,NA,birds_rescue,It is small relative to other,0.75,NA,congruent,custom_main_text1,small,Your friend says: <br/><b>That rescue is a small hummingbird.</b>
2763,What do you think your friend is saying it is small relative to?,Thu Apr 08 2021 11:04:49 GMT-0700 (Pacific Daylight Time),images/clownfish_net.png,images/fish-parade-basic.png,39,critical,None,2,fish,Jennifer,NA,clownfish,fish,yes,Your friend goes ahead of you. You see your friend in the distance:,NA,pred,rescue,clownfish,31,clownfish,NA,higher_degree,small,NA,english,female,10181,You visit your friend who works as a marine biologist and you see the following:,3,1617905089338,NA,fish_rescue,It is small relative to other,0.75,NA,congruent,custom_main_text1,small,Your friend says: <br/><b>That rescue is a small clownfish.</b>
2763,What do you think your friend is saying it is big relative to?,Thu Apr 08 2021 11:04:49 GMT-0700 (Pacific Daylight Time),images/great-dane.png,images/dog-parade-basic2.png,39,critical,None,2,dogs2,Jennifer,NA,Great Danes,dogs,yes,Your friend goes ahead of you. You see your friend in the distance:,NA,pred,prize-winner,Great Dane,31,Great,NA,higher_degree,big,NA,english,female,7701,You and your friend are at a pet show and you see the following:,4,1617905089338,NA,dogs2_prize,It is big relative to other,0.75,NA,congruent,custom_main_text1,big,Your friend says: <br/><b>That prize-winner is a big Great Dane.</b>
2763,What do you think your friend is saying it is small relative to?,Thu Apr 08 2021 11:04:49 GMT-0700 (Pacific Daylight Time),images/stripmall-landmark.png,images/buildings-parade-basic.png,39,critical,None,2,buildings,Jennifer,NA,buildings,stripmalls,yes,Your friend goes ahead of you. You see your friend in the distance:,NA,subj,landmark,stripmall,31,stripmalls,NA,higher_degree,small,NA,english,female,5264,You visit your friend who lives in another city. You take a walk and you see the following:,5,1617905089338,NA,buildings_landmark,It is small relative to other,0.75,NA,congruent,custom_main_text1,small,Your friend says: <br/><b>That small stripmall is a landmark.</b>
2763,What do you think your friend is saying it is big relative to?,Thu Apr 08 2021 11:04:49 GMT-0700 (Pacific Daylight Time),images/tuna_net.png,images/fish-parade-basic.png,39,critical,None,2,fish,Jennifer,NA,tunas,fish,yes,Your friend goes ahead of you. You see your friend in the distance:,NA,subj,rescue,tuna,31,tunas,NA,higher_degree,big,NA,english,female,4431,You visit your friend who works as a marine biologist and you see the following:,6,1617905089338,NA,fish_rescue,It is big relative to other,0.75,NA,congruent,custom_main_text1,big,Your friend says: <br/><b>That big tuna is a rescue.</b>
2763,What do you think your friend is saying it is big relative to?,Thu Apr 08 2021 11:04:49 GMT-0700 (Pacific Daylight Time),images/eagle.png,images/bird-parade-basic.png,39,critical,None,2,birds,Jennifer,NA,eagles,birds,yes,Your friend goes ahead of you. You see your friend in the distance:,NA,subj,rescue,eagle,31,eagles,NA,higher_degree,big,NA,english,female,7409,You visit your friend who works at an animal shelter and you see the following:,7,1617905089338,NA,birds_rescue,It is big relative to other,0.75,NA,congruent,custom_main_text1,big,Your friend says: <br/><b>That big eagle is a rescue.</b>
2763,What do you think your friend is saying it is small relative to?,Thu Apr 08 2021 11:04:49 GMT-0700 (Pacific Daylight Time),images/dandelion-landmark.png,images/flower-parade-basic-landmark.png,39,critical,None,2,flowers,Jennifer,NA,flowers,dandelions,yes,Your friend goes ahead of you. You see your friend in the distance:,NA,pred,landmark,dandelion,31,dandelions,NA,higher_degree,small,NA,english,female,8793,You and your friend walk to a cabin you are renting for the weekend for the first time. You go along the path and you see the following:,8,1617905089338,NA,flowers_landmark,It is small relative to other,0.75,NA,congruent,custom_main_text1,small,Your friend says: <br/><b>That landmark is a small dandelion.</b>
2763,What do you think your friend is saying it is big relative to?,Thu Apr 08 2021 11:04:49 GMT-0700 (Pacific Daylight Time),images/sunflower.png,images/flower-parade-basic.png,39,critical,None,2,flowers,Jennifer,NA,sunflowers,flowers,yes,Your friend goes ahead of you. You see your friend in the distance:,NA,pred,present,sunflower,31,sunflowers,NA,higher_degree,big,NA,english,female,5185,You and your friend are at a garden store and you see the following:,9,1617905089338,NA,flowers_present,It is big relative to other,0.75,NA,congruent,custom_main_text1,big,Your friend says: <br/><b>That present is a big sunflower.</b>
2763,What do you think your friend is saying it is small relative to?,Thu Apr 08 2021 11:04:49 GMT-0700 (Pacific Daylight Time),images/pug.png,images/dog-parade-basic2.png,39,critical,None,2,dogs2,Jennifer,NA,dogs,pugs,yes,Your friend goes ahead of you. You see your friend in the distance:,NA,subj,prize-winner,pug,31,pugs,NA,higher_degree,small,NA,english,female,6453,You and your friend are at a pet show and you see the following:,10,1617905089338,NA,dogs2_prize,It is small relative to other,0.75,NA,congruent,custom_main_text1,small,Your friend says: <br/><b>That small pug is a prize-winner.</b>
2763,What do you think your friend is saying it is small relative to?,Thu Apr 08 2021 11:04:49 GMT-0700 (Pacific Daylight Time),images/dandelion.png,images/flower-parade-basic.png,39,critical,None,2,flowers,Jennifer,NA,dandelions,flowers,yes,Your friend goes ahead of you. You see your friend in the distance:,NA,subj,present,dandelion,31,dandelions,NA,higher_degree,small,NA,english,female,3975,You and your friend are at a garden store and you see the following:,11,1617905089338,NA,flowers_present,It is small relative to other,0.75,NA,congruent,custom_main_text1,small,Your friend says: <br/><b>That small dandelion is a present.</b>
2763,What do you think your friend is saying it is big relative to?,Thu Apr 08 2021 11:04:49 GMT-0700 (Pacific Daylight Time),images/sunflower-landmark.png,images/flower-parade-basic-landmark.png,39,critical,None,2,flowers,Jennifer,NA,flowers,sunflowers,yes,Your friend goes ahead of you. You see your friend in the distance:,NA,subj,landmark,sunflower,31,sunflowers,NA,higher_degree,big,NA,english,female,4306,You and your friend walk to a cabin you are renting for the weekend for the first time. You go along the path and you see the following:,12,1617905089338,NA,flowers_landmark,It is big relative to other,0.75,NA,congruent,custom_main_text1,big,Your friend says: <br/><b>That big sunflower is a landmark.</b>
2762,<i>What do you think Speaker A meant? </i>,Thu Apr 08 2021 14:00:33 GMT-0400 (Eastern Daylight Time),NA,NA,39,NA,No,1,NA,jessica,1,NA,NA,yes,NA,"<b> Speaker A: ""The Empire State Building is tall.""</b>",NA,NA,NA,39,buildings,n/a,graduated_college,NA,comp_class_warmup,English,female,NA,In the main trials you will be asked to rephrase something a person said. The utterance will contain a word that is <i>relative</i> and your task is to figure out what it is relative to. <br /> <br /> For example: <br />,1,1617904833578,1,NA,The Empire State Building is tall relative to other,NA,"buildings, skyscrapers, houses, constructions (choose one)",NA,comp_class_warmup,NA,NA
2762,What do you think your friend is saying it is big relative to?,Thu Apr 08 2021 14:00:33 GMT-0400 (Eastern Daylight Time),images/sunflower-landmark.png,images/flower-parade-basic-landmark.png,39,critical,No,1,flowers,jessica,NA,sunflowers,flowers,yes,Your friend goes ahead of you. You see your friend in the distance:,NA,subj,landmark,sunflower,39,sunflowers,n/a,graduated_college,big,NA,English,female,24302,You and your friend walk to a cabin you are renting for the weekend for the first time. You go along the path and you see the following:,1,1617904833578,NA,flowers_landmark,It is big relative to other,NA,NA,congruent,custom_main_text1,big,Your friend says: <br/><b>That big sunflower is a landmark.</b>
2762,What do you think your friend is saying it is small relative to?,Thu Apr 08 2021 14:00:33 GMT-0400 (Eastern Daylight Time),images/hummingbird.png,images/bird-parade-basic.png,39,critical,No,1,birds,jessica,NA,birds,hummingbirds,yes,Your friend goes ahead of you. You see your friend in the distance:,NA,subj,rescue,hummingbird,39,hummingbirds,n/a,graduated_college,small,NA,English,female,17389,You visit your friend who works at an animal shelter and you see the following:,2,1617904833578,NA,birds_rescue,It is small relative to other,NA,NA,congruent,custom_main_text1,small,Your friend says: <br/><b>That small hummingbird is a rescue.</b>
2762,What do you think your friend is saying it is small relative to?,Thu Apr 08 2021 14:00:33 GMT-0400 (Eastern Daylight Time),images/dandelion-landmark.png,images/flower-parade-basic-landmark.png,39,critical,No,1,flowers,jessica,NA,dandelions,flowers,yes,Your friend goes ahead of you. You see your friend in the distance:,NA,pred,landmark,dandelion,39,dandelions,n/a,graduated_college,small,NA,English,female,12892,You and your friend walk to a cabin you are renting for the weekend for the first time. You go along the path and you see the following:,3,1617904833578,NA,flowers_landmark,It is small relative to other,NA,NA,congruent,custom_main_text1,small,Your friend says: <br/><b>That landmark is a small dandelion.</b>
2762,What do you think your friend is saying it is big relative to?,Thu Apr 08 2021 14:00:33 GMT-0400 (Eastern Daylight Time),images/skyscraper-landmark.png,images/buildings-parade-basic.png,39,critical,No,1,buildings,jessica,NA,skyscrapers,buildings,yes,Your friend goes ahead of you. You see your friend in the distance:,NA,pred,landmark,skyscraper,39,skyscrapers,n/a,graduated_college,big,NA,English,female,12615,You visit your friend who lives in another city. You take a walk and you see the following:,4,1617904833578,NA,buildings_landmark,It is big relative to other,NA,NA,congruent,custom_main_text1,big,Your friend says: <br/><b>That landmark is a big skyscraper.</b>
2762,What do you think your friend is saying it is small relative to?,Thu Apr 08 2021 14:00:33 GMT-0400 (Eastern Daylight Time),images/clownfish_net.png,images/fish-parade-basic.png,39,critical,No,1,fish,jessica,NA,fish,clownfish,yes,Your friend goes ahead of you. You see your friend in the distance:,NA,pred,rescue,clownfish,39,clownfish,n/a,graduated_college,small,NA,English,female,17155,You visit your friend who works as a marine biologist and you see the following:,5,1617904833578,NA,fish_rescue,It is small relative to other,NA,NA,congruent,custom_main_text1,small,Your friend says: <br/><b>That rescue is a small clownfish.</b>
2762,What do you think your friend is saying it is small relative to?,Thu Apr 08 2021 14:00:33 GMT-0400 (Eastern Daylight Time),images/stripmall-landmark.png,images/buildings-parade-basic.png,39,critical,No,1,buildings,jessica,NA,stripmalls,buildings,yes,Your friend goes ahead of you. You see your friend in the distance:,NA,subj,landmark,stripmall,39,stripmalls,n/a,graduated_college,small,NA,English,female,13191,You visit your friend who lives in another city. You take a walk and you see the following:,6,1617904833578,NA,buildings_landmark,It is small relative to other,NA,NA,congruent,custom_main_text1,small,Your friend says: <br/><b>That small stripmall is a landmark.</b>
2762,What do you think your friend is saying it is big relative to?,Thu Apr 08 2021 14:00:33 GMT-0400 (Eastern Daylight Time),images/eagle.png,images/bird-parade-basic.png,39,critical,No,1,birds,jessica,NA,birds,eagles,yes,Your friend goes ahead of you. You see your friend in the distance:,NA,pred,rescue,eagle,39,eagles,n/a,graduated_college,big,NA,English,female,13094,You visit your friend who works at an animal shelter and you see the following:,7,1617904833578,NA,birds_rescue,It is big relative to other,NA,NA,congruent,custom_main_text1,big,Your friend says: <br/><b>That rescue is a big eagle.</b>
2762,What do you think your friend is saying it is big relative to?,Thu Apr 08 2021 14:00:33 GMT-0400 (Eastern Daylight Time),images/doberman.png,images/dog-parade-basic.png,39,critical,No,1,dogs1,jessica,NA,dogs,dobermen,yes,Your friend goes ahead of you. You see your friend in the distance:,NA,pred,service-animal,doberman,39,dobermen,n/a,graduated_college,big,NA,English,female,8904,You and your friend are at an animal training ground and you see the following:,8,1617904833578,NA,dogs1_service,It is big relative to other,NA,NA,congruent,custom_main_text1,big,Your friend says: <br/><b>That service-animal is a big doberman.</b>
2762,What do you think your friend is saying it is big relative to?,Thu Apr 08 2021 14:00:33 GMT-0400 (Eastern Daylight Time),images/tuna_net.png,images/fish-parade-basic.png,39,critical,No,1,fish,jessica,NA,tunas,fish,yes,Your friend goes ahead of you. You see your friend in the distance:,NA,subj,rescue,tuna,39,tunas,n/a,graduated_college,big,NA,English,female,8869,You visit your friend who works as a marine biologist and you see the following:,9,1617904833578,NA,fish_rescue,It is big relative to other,NA,NA,congruent,custom_main_text1,big,Your friend says: <br/><b>That big tuna is a rescue.</b>
2762,What do you think your friend is saying it is big relative to?,Thu Apr 08 2021 14:00:33 GMT-0400 (Eastern Daylight Time),images/redwood_sign.png,images/tree-parade-basic.png,39,critical,No,1,trees,jessica,NA,trees,redwoods,yes,Your friend goes ahead of you. You see your friend in the distance:,NA,subj,landmark,redwood,39,redwoods,n/a,graduated_college,big,NA,English,female,15778,You and your friend walk to your friend's cabin in a park for the first time. You want to memorize the path and you see the following:,10,1617904833578,NA,trees_landmark,It is big relative to other,NA,NA,congruent,custom_main_text1,big,Your friend says: <br/><b>That big redwood is a landmark.</b>
2762,What do you think your friend is saying it is small relative to?,Thu Apr 08 2021 14:00:33 GMT-0400 (Eastern Daylight Time),images/chihuahua.png,images/dog-parade-basic.png,39,critical,No,1,dogs1,jessica,NA,chihuahuas,dogs,yes,Your friend goes ahead of you. You see your friend in the distance:,NA,subj,service-animal,chihuahua,39,chihuahuas,n/a,graduated_college,small,NA,English,female,7542,You and your friend are at an animal training ground and you see the following:,11,1617904833578,NA,dogs1_service,It is small relative to other,NA,NA,congruent,custom_main_text1,small,Your friend says: <br/><b>That small chihuahua is a service-animal.</b>
2762,What do you think your friend is saying it is small relative to?,Thu Apr 08 2021 14:00:33 GMT-0400 (Eastern Daylight Time),images/bonsai_stick.png,images/tree-parade-basic.png,39,critical,No,1,trees,jessica,NA,trees,bonsais,yes,Your friend goes ahead of you. You see your friend in the distance:,NA,pred,landmark,bonsai,39,bonsais,n/a,graduated_college,small,NA,English,female,14525,You and your friend walk to your friend's cabin in a park for the first time. You want to memorize the path and you see the following:,12,1617904833578,NA,trees_landmark,It is small relative to other,NA,NA,congruent,custom_main_text1,small,Your friend says: <br/><b>That landmark is a small bonsai.</b>
2761,<i>What do you think Speaker A meant? </i>,Thu Apr 08 2021 14:00:46 GMT-0400 (Eastern Daylight Time),NA,NA,39,NA,no,1,NA,mary,1,NA,NA,yes,NA,"<b> Speaker A: ""The Empire State Building is tall.""</b>",NA,NA,NA,27,buildings,NA,some_college,NA,comp_class_warmup,English,male,NA,In the main trials you will be asked to rephrase something a person said. The utterance will contain a word that is <i>relative</i> and your task is to figure out what it is relative to. <br /> <br /> For example: <br />,1,1617904846821,1,NA,The Empire State Building is tall relative to other,0.5,"buildings, skyscrapers, houses, constructions (choose one)",NA,comp_class_warmup,NA,NA
2761,What do you think your friend is saying it is big relative to?,Thu Apr 08 2021 14:00:46 GMT-0400 (Eastern Daylight Time),images/doberman-rescue.png,images/dog-parade-basic-rescue.png,39,critical,no,1,dogs1,mary,NA,dogs,dobermen,yes,Your friend goes ahead of you. You see your friend in the distance:,NA,pred,rescue,doberman,27,dogs,NA,some_college,big,NA,English,male,16463,You visit your friend who works at an animal shelter and you see the following:,1,1617904846821,NA,dogs1_rescue,It is big relative to other,0.5,NA,congruent,custom_main_text1,big,Your friend says: <br/><b>That rescue is a big doberman.</b>
2761,What do you think your friend is saying it is big relative to?,Thu Apr 08 2021 14:00:46 GMT-0400 (Eastern Daylight Time),images/great-dane.png,images/dog-parade-basic2.png,39,critical,no,1,dogs2,mary,NA,Great Danes,dogs,yes,Your friend goes ahead of you. You see your friend in the distance:,NA,pred,prize-winner,Great Dane,27,dogs,NA,some_college,big,NA,English,male,26457,You and your friend are at a pet show and you see the following:,2,1617904846821,NA,dogs2_prize,It is big relative to other,0.5,NA,congruent,custom_main_text1,big,Your friend says: <br/><b>That prize-winner is a big Great Dane.</b>
2761,What do you think your friend is saying it is small relative to?,Thu Apr 08 2021 14:00:46 GMT-0400 (Eastern Daylight Time),images/clownfish_net.png,images/fish-parade-basic.png,39,critical,no,1,fish,mary,NA,clownfish,fish,yes,Your friend goes ahead of you. You see your friend in the distance:,NA,pred,rescue,clownfish,27,clownfish,NA,some_college,small,NA,English,male,12586,You visit your friend who works as a marine biologist and you see the following:,3,1617904846821,NA,fish_rescue,It is small relative to other,0.5,NA,congruent,custom_main_text1,small,Your friend says: <br/><b>That rescue is a small clownfish.</b>
2761,What do you think your friend is saying it is big relative to?,Thu Apr 08 2021 14:00:46 GMT-0400 (Eastern Daylight Time),images/skyscraper-landmark.png,images/buildings-parade-basic.png,39,critical,no,1,buildings,mary,NA,skyscrapers,buildings,yes,Your friend goes ahead of you. You see your friend in the distance:,NA,subj,landmark,skyscraper,27,buildings,NA,some_college,big,NA,English,male,15866,You visit your friend who lives in another city. You take a walk and you see the following:,4,1617904846821,NA,buildings_landmark,It is big relative to other,0.5,NA,congruent,custom_main_text1,big,Your friend says: <br/><b>That big skyscraper is a landmark.</b>
2761,What do you think your friend is saying it is small relative to?,Thu Apr 08 2021 14:00:46 GMT-0400 (Eastern Daylight Time),images/dandelion-landmark.png,images/flower-parade-basic-landmark.png,39,critical,no,1,flowers,mary,NA,dandelions,flowers,yes,Your friend goes ahead of you. You see your friend in the distance:,NA,pred,landmark,dandelion,27,flowers,NA,some_college,small,NA,English,male,15654,You and your friend walk to a cabin you are renting for the weekend for the first time. You go along the path and you see the following:,5,1617904846821,NA,flowers_landmark,It is small relative to other,0.5,NA,congruent,custom_main_text1,small,Your friend says: <br/><b>That landmark is a small dandelion.</b>
2761,What do you think your friend is saying it is small relative to?,Thu Apr 08 2021 14:00:46 GMT-0400 (Eastern Daylight Time),images/pug-gift.png,images/dog-parade-basic2-gift.png,39,critical,no,1,dogs2,mary,NA,pugs,dogs,yes,Your friend goes ahead of you. You see your friend in the distance:,NA,subj,present,pug,27,dogs,NA,some_college,small,NA,English,male,17586,You and your friend are at a pet store and you see the following:,6,1617904846821,NA,dogs2_present,It is small relative to other,0.5,NA,congruent,custom_main_text1,small,Your friend says: <br/><b>That small pug is a present.</b>
2761,What do you think your friend is saying it is small relative to?,Thu Apr 08 2021 14:00:46 GMT-0400 (Eastern Daylight Time),images/pug.png,images/dog-parade-basic2.png,39,critical,no,1,dogs2,mary,NA,dogs,pugs,yes,Your friend goes ahead of you. You see your friend in the distance:,NA,subj,prize-winner,pug,27,pugs,NA,some_college,small,NA,English,male,9460,You and your friend are at a pet show and you see the following:,7,1617904846821,NA,dogs2_prize,It is small relative to other,0.5,NA,congruent,custom_main_text1,small,Your friend says: <br/><b>That small pug is a prize-winner.</b>
2761,What do you think your friend is saying it is small relative to?,Thu Apr 08 2021 14:00:46 GMT-0400 (Eastern Daylight Time),images/stripmall-landmark.png,images/buildings-parade-basic.png,39,critical,no,1,buildings,mary,NA,stripmalls,buildings,yes,Your friend goes ahead of you. You see your friend in the distance:,NA,pred,landmark,stripmall,27,stripmalls,NA,some_college,small,NA,English,male,13139,You visit your friend who lives in another city. You take a walk and you see the following:,8,1617904846821,NA,buildings_landmark,It is small relative to other,0.5,NA,congruent,custom_main_text1,small,Your friend says: <br/><b>That landmark is a small stripmall.</b>
2761,What do you think your friend is saying it is big relative to?,Thu Apr 08 2021 14:00:46 GMT-0400 (Eastern Daylight Time),images/sunflower-landmark.png,images/flower-parade-basic-landmark.png,39,critical,no,1,flowers,mary,NA,flowers,sunflowers,yes,Your friend goes ahead of you. You see your friend in the distance:,NA,subj,landmark,sunflower,27,sunflowers,NA,some_college,big,NA,English,male,9176,You and your friend walk to a cabin you are renting for the weekend for the first time. You go along the path and you see the following:,9,1617904846821,NA,flowers_landmark,It is big relative to other,0.5,NA,congruent,custom_main_text1,big,Your friend says: <br/><b>That big sunflower is a landmark.</b>
2761,What do you think your friend is saying it is big relative to?,Thu Apr 08 2021 14:00:46 GMT-0400 (Eastern Daylight Time),images/great-dane-gift.png,images/dog-parade-basic2-gift.png,39,critical,no,1,dogs2,mary,NA,dogs,Great Danes,yes,Your friend goes ahead of you. You see your friend in the distance:,NA,pred,present,Great Dane,27,Great,NA,some_college,big,NA,English,male,9204,You and your friend are at a pet store and you see the following:,10,1617904846821,NA,dogs2_present,It is big relative to other,0.5,NA,congruent,custom_main_text1,big,Your friend says: <br/><b>That present is a big Great Dane.</b>
2761,What do you think your friend is saying it is big relative to?,Thu Apr 08 2021 14:00:46 GMT-0400 (Eastern Daylight Time),images/tuna_net.png,images/fish-parade-basic.png,39,critical,no,1,fish,mary,NA,tunas,fish,yes,Your friend goes ahead of you. You see your friend in the distance:,NA,subj,rescue,tuna,27,tunas,NA,some_college,big,NA,English,male,4286,You visit your friend who works as a marine biologist and you see the following:,11,1617904846821,NA,fish_rescue,It is big relative to other,0.5,NA,congruent,custom_main_text1,big,Your friend says: <br/><b>That big tuna is a rescue.</b>
2761,What do you think your friend is saying it is small relative to?,Thu Apr 08 2021 14:00:46 GMT-0400 (Eastern Daylight Time),images/chihuahua-rescue.png,images/dog-parade-basic-rescue.png,39,critical,no,1,dogs1,mary,NA,chihuahuas,dogs,yes,Your friend goes ahead of you. You see your friend in the distance:,NA,subj,rescue,chihuahua,27,chihuahuas,NA,some_college,small,NA,English,male,13209,You visit your friend who works at an animal shelter and you see the following:,12,1617904846821,NA,dogs1_rescue,It is small relative to other,0.5,NA,congruent,custom_main_text1,small,Your friend says: <br/><b>That small chihuahua is a rescue.</b>
2760,<i>What do you think Speaker A meant? </i>,Thu Apr 08 2021 11:59:09 GMT-0600 (Mountain Daylight Time),NA,NA,39,NA,No,1,NA,sarah,1,NA,NA,confused,NA,"<b> Speaker A: ""The Empire State Building is tall.""</b>",NA,NA,NA,27,Buildings,NA,some_college,NA,comp_class_warmup,English,female,NA,In the main trials you will be asked to rephrase something a person said. The utterance will contain a word that is <i>relative</i> and your task is to figure out what it is relative to. <br /> <br /> For example: <br />,1,1617904749818,1,NA,The Empire State Building is tall relative to other,1,"buildings, skyscrapers, houses, constructions (choose one)",NA,comp_class_warmup,NA,NA
2760,What do you think your friend is saying it is big relative to?,Thu Apr 08 2021 11:59:09 GMT-0600 (Mountain Daylight Time),images/tuna_net.png,images/fish-parade-basic.png,39,critical,No,1,fish,sarah,NA,fish,tunas,confused,Your friend goes ahead of you. You see your friend in the distance:,NA,subj,rescue,tuna,27,fish,NA,some_college,big,NA,English,female,23434,You visit your friend who works as a marine biologist and you see the following:,1,1617904749818,NA,fish_rescue,It is big relative to other,1,NA,congruent,custom_main_text1,big,Your friend says: <br/><b>That big tuna is a rescue.</b>
2760,What do you think your friend is saying it is small relative to?,Thu Apr 08 2021 11:59:09 GMT-0600 (Mountain Daylight Time),images/pug-gift.png,images/dog-parade-basic2-gift.png,39,critical,No,1,dogs2,sarah,NA,dogs,pugs,confused,Your friend goes ahead of you. You see your friend in the distance:,NA,pred,present,pug,27,dogs,NA,some_college,small,NA,English,female,18960,You and your friend are at a pet store and you see the following:,2,1617904749818,NA,dogs2_present,It is small relative to other,1,NA,congruent,custom_main_text1,small,Your friend says: <br/><b>That present is a small pug.</b>
2760,What do you think your friend is saying it is big relative to?,Thu Apr 08 2021 11:59:09 GMT-0600 (Mountain Daylight Time),images/doberman-rescue.png,images/dog-parade-basic-rescue.png,39,critical,No,1,dogs1,sarah,NA,dobermen,dogs,confused,Your friend goes ahead of you. You see your friend in the distance:,NA,subj,rescue,doberman,27,dobermen,NA,some_college,big,NA,English,female,13590,You visit your friend who works at an animal shelter and you see the following:,3,1617904749818,NA,dogs1_rescue,It is big relative to other,1,NA,congruent,custom_main_text1,big,Your friend says: <br/><b>That big doberman is a rescue.</b>
2760,What do you think your friend is saying it is big relative to?,Thu Apr 08 2021 11:59:09 GMT-0600 (Mountain Daylight Time),images/great-dane-gift.png,images/dog-parade-basic2-gift.png,39,critical,No,1,dogs2,sarah,NA,Great Danes,dogs,confused,Your friend goes ahead of you. You see your friend in the distance:,NA,subj,present,Great Dane,27,dogs,NA,some_college,big,NA,English,female,12398,You and your friend are at a pet store and you see the following:,4,1617904749818,NA,dogs2_present,It is big relative to other,1,NA,congruent,custom_main_text1,big,Your friend says: <br/><b>That big Great Dane is a present.</b>
2760,What do you think your friend is saying it is small relative to?,Thu Apr 08 2021 11:59:09 GMT-0600 (Mountain Daylight Time),images/pug.png,images/dog-parade-basic2.png,39,critical,No,1,dogs2,sarah,NA,pugs,dogs,confused,Your friend goes ahead of you. You see your friend in the distance:,NA,subj,prize-winner,pug,27,pugs,NA,some_college,small,NA,English,female,5888,You and your friend are at a pet show and you see the following:,5,1617904749818,NA,dogs2_prize,It is small relative to other,1,NA,congruent,custom_main_text1,small,Your friend says: <br/><b>That small pug is a prize-winner.</b>
2760,What do you think your friend is saying it is small relative to?,Thu Apr 08 2021 11:59:09 GMT-0600 (Mountain Daylight Time),images/stripmall-landmark.png,images/buildings-parade-basic.png,39,critical,No,1,buildings,sarah,NA,stripmalls,buildings,confused,Your friend goes ahead of you. You see your friend in the distance:,NA,subj,landmark,stripmall,27,buildings,NA,some_college,small,NA,English,female,16014,You visit your friend who lives in another city. You take a walk and you see the following:,6,1617904749818,NA,buildings_landmark,It is small relative to other,1,NA,congruent,custom_main_text1,small,Your friend says: <br/><b>That small stripmall is a landmark.</b>
2760,What do you think your friend is saying it is big relative to?,Thu Apr 08 2021 11:59:09 GMT-0600 (Mountain Daylight Time),images/great-dane.png,images/dog-parade-basic2.png,39,critical,No,1,dogs2,sarah,NA,dogs,Great Danes,confused,Your friend goes ahead of you. You see your friend in the distance:,NA,pred,prize-winner,Great Dane,27,Great,NA,some_college,big,NA,English,female,19352,You and your friend are at a pet show and you see the following:,7,1617904749818,NA,dogs2_prize,It is big relative to other,1,NA,congruent,custom_main_text1,big,Your friend says: <br/><b>That prize-winner is a big Great Dane.</b>
2760,What do you think your friend is saying it is small relative to?,Thu Apr 08 2021 11:59:09 GMT-0600 (Mountain Daylight Time),images/chihuahua-rescue.png,images/dog-parade-basic-rescue.png,39,critical,No,1,dogs1,sarah,NA,dogs,chihuahuas,confused,Your friend goes ahead of you. You see your friend in the distance:,NA,pred,rescue,chihuahua,27,chihuahuas,NA,some_college,small,NA,English,female,8674,You visit your friend who works at an animal shelter and you see the following:,8,1617904749818,NA,dogs1_rescue,It is small relative to other,1,NA,congruent,custom_main_text1,small,Your friend says: <br/><b>That rescue is a small chihuahua.</b>
2760,What do you think your friend is saying it is big relative to?,Thu Apr 08 2021 11:59:09 GMT-0600 (Mountain Daylight Time),images/redwood_sign.png,images/tree-parade-basic.png,39,critical,No,1,trees,sarah,NA,redwoods,trees,confused,Your friend goes ahead of you. You see your friend in the distance:,NA,pred,landmark,redwood,27,redwoods,NA,some_college,big,NA,English,female,16088,You and your friend walk to your friend's cabin in a park for the first time. You want to memorize the path and you see the following:,9,1617904749818,NA,trees_landmark,It is big relative to other,1,NA,congruent,custom_main_text1,big,Your friend says: <br/><b>That landmark is a big redwood.</b>
2760,What do you think your friend is saying it is small relative to?,Thu Apr 08 2021 11:59:09 GMT-0600 (Mountain Daylight Time),images/clownfish_net.png,images/fish-parade-basic.png,39,critical,No,1,fish,sarah,NA,fish,clownfish,confused,Your friend goes ahead of you. You see your friend in the distance:,NA,pred,rescue,clownfish,27,fish,NA,some_college,small,NA,English,female,7764,You visit your friend who works as a marine biologist and you see the following:,10,1617904749818,NA,fish_rescue,It is small relative to other,1,NA,congruent,custom_main_text1,small,Your friend says: <br/><b>That rescue is a small clownfish.</b>
2760,What do you think your friend is saying it is small relative to?,Thu Apr 08 2021 11:59:09 GMT-0600 (Mountain Daylight Time),images/bonsai_stick.png,images/tree-parade-basic.png,39,critical,No,1,trees,sarah,NA,bonsais,trees,confused,Your friend goes ahead of you. You see your friend in the distance:,NA,subj,landmark,bonsai,27,bonsais,NA,some_college,small,NA,English,female,8319,You and your friend walk to your friend's cabin in a park for the first time. You want to memorize the path and you see the following:,11,1617904749818,NA,trees_landmark,It is small relative to other,1,NA,congruent,custom_main_text1,small,Your friend says: <br/><b>That small bonsai is a landmark.</b>
2760,What do you think your friend is saying it is big relative to?,Thu Apr 08 2021 11:59:09 GMT-0600 (Mountain Daylight Time),images/skyscraper-landmark.png,images/buildings-parade-basic.png,39,critical,No,1,buildings,sarah,NA,skyscrapers,buildings,confused,Your friend goes ahead of you. You see your friend in the distance:,NA,pred,landmark,skyscraper,27,skyscrapers,NA,some_college,big,NA,English,female,9878,You visit your friend who lives in another city. You take a walk and you see the following:,12,1617904749818,NA,buildings_landmark,It is big relative to other,1,NA,congruent,custom_main_text1,big,Your friend says: <br/><b>That landmark is a big skyscraper.</b>
2759,<i>What do you think Speaker A meant? </i>,Thu Apr 08 2021 12:59:02 GMT-0500 (Central Daylight Time),NA,NA,39,NA,None,1,NA,susan,1,NA,NA,yes,NA,"<b> Speaker A: ""The Empire State Building is tall.""</b>",NA,NA,NA,26,Buildings,NA,graduated_college,NA,comp_class_warmup,NA,female,NA,In the main trials you will be asked to rephrase something a person said. The utterance will contain a word that is <i>relative</i> and your task is to figure out what it is relative to. <br /> <br /> For example: <br />,1,1617904742615,1,NA,The Empire State Building is tall relative to other,0.5,"buildings, skyscrapers, houses, constructions (choose one)",NA,comp_class_warmup,NA,NA
2759,What do you think your friend is saying it is small relative to?,Thu Apr 08 2021 12:59:02 GMT-0500 (Central Daylight Time),images/chihuahua-rescue.png,images/dog-parade-basic-rescue.png,39,critical,None,1,dogs1,susan,NA,chihuahuas,dogs,yes,Your friend goes ahead of you. You see your friend in the distance:,NA,pred,rescue,chihuahua,26,dogs,NA,graduated_college,small,NA,NA,female,20180,You visit your friend who works at an animal shelter and you see the following:,1,1617904742615,NA,dogs1_rescue,It is small relative to other,0.5,NA,congruent,custom_main_text1,small,Your friend says: <br/><b>That rescue is a small chihuahua.</b>
2759,What do you think your friend is saying it is small relative to?,Thu Apr 08 2021 12:59:02 GMT-0500 (Central Daylight Time),images/pug.png,images/dog-parade-basic2.png,39,critical,None,1,dogs2,susan,NA,pugs,dogs,yes,Your friend goes ahead of you. You see your friend in the distance:,NA,subj,prize-winner,pug,26,pugs,NA,graduated_college,small,NA,NA,female,11555,You and your friend are at a pet show and you see the following:,2,1617904742615,NA,dogs2_prize,It is small relative to other,0.5,NA,congruent,custom_main_text1,small,Your friend says: <br/><b>That small pug is a prize-winner.</b>
2759,What do you think your friend is saying it is big relative to?,Thu Apr 08 2021 12:59:02 GMT-0500 (Central Daylight Time),images/skyscraper-landmark.png,images/buildings-parade-basic.png,39,critical,None,1,buildings,susan,NA,buildings,skyscrapers,yes,Your friend goes ahead of you. You see your friend in the distance:,NA,pred,landmark,skyscraper,26,buildings,NA,graduated_college,big,NA,NA,female,10515,You visit your friend who lives in another city. You take a walk and you see the following:,3,1617904742615,NA,buildings_landmark,It is big relative to other,0.5,NA,congruent,custom_main_text1,big,Your friend says: <br/><b>That landmark is a big skyscraper.</b>
2759,What do you think your friend is saying it is small relative to?,Thu Apr 08 2021 12:59:02 GMT-0500 (Central Daylight Time),images/bonsai_stick.png,images/tree-parade-basic.png,39,critical,None,1,trees,susan,NA,trees,bonsais,yes,Your friend goes ahead of you. You see your friend in the distance:,NA,pred,landmark,bonsai,26,bonsais,NA,graduated_college,small,NA,NA,female,9144,You and your friend walk to your friend's cabin in a park for the first time. You want to memorize the path and you see the following:,4,1617904742615,NA,trees_landmark,It is small relative to other,0.5,NA,congruent,custom_main_text1,small,Your friend says: <br/><b>That landmark is a small bonsai.</b>
2759,What do you think your friend is saying it is small relative to?,Thu Apr 08 2021 12:59:02 GMT-0500 (Central Daylight Time),images/dandelion-landmark.png,images/flower-parade-basic-landmark.png,39,critical,None,1,flowers,susan,NA,flowers,dandelions,yes,Your friend goes ahead of you. You see your friend in the distance:,NA,subj,landmark,dandelion,26,flowers,NA,graduated_college,small,NA,NA,female,6310,You and your friend walk to a cabin you are renting for the weekend for the first time. You go along the path and you see the following:,5,1617904742615,NA,flowers_landmark,It is small relative to other,0.5,NA,congruent,custom_main_text1,small,Your friend says: <br/><b>That small dandelion is a landmark.</b>
2759,What do you think your friend is saying it is small relative to?,Thu Apr 08 2021 12:59:02 GMT-0500 (Central Daylight Time),images/dandelion.png,images/flower-parade-basic.png,39,critical,None,1,flowers,susan,NA,dandelions,flowers,yes,Your friend goes ahead of you. You see your friend in the distance:,NA,pred,present,dandelion,26,flowers,NA,graduated_college,small,NA,NA,female,11606,You and your friend are at a garden store and you see the following:,6,1617904742615,NA,flowers_present,It is small relative to other,0.5,NA,congruent,custom_main_text1,small,Your friend says: <br/><b>That present is a small dandelion.</b>
2759,What do you think your friend is saying it is big relative to?,Thu Apr 08 2021 12:59:02 GMT-0500 (Central Daylight Time),images/redwood_sign.png,images/tree-parade-basic.png,39,critical,None,1,trees,susan,NA,redwoods,trees,yes,Your friend goes ahead of you. You see your friend in the distance:,NA,subj,landmark,redwood,26,trees,NA,graduated_college,big,NA,NA,female,7493,You and your friend walk to your friend's cabin in a park for the first time. You want to memorize the path and you see the following:,7,1617904742615,NA,trees_landmark,It is big relative to other,0.5,NA,congruent,custom_main_text1,big,Your friend says: <br/><b>That big redwood is a landmark.</b>
2759,What do you think your friend is saying it is big relative to?,Thu Apr 08 2021 12:59:02 GMT-0500 (Central Daylight Time),images/sunflower-landmark.png,images/flower-parade-basic-landmark.png,39,critical,None,1,flowers,susan,NA,flowers,sunflowers,yes,Your friend goes ahead of you. You see your friend in the distance:,NA,pred,landmark,sunflower,26,flowers,NA,graduated_college,big,NA,NA,female,16129,You and your friend walk to a cabin you are renting for the weekend for the first time. You go along the path and you see the following:,8,1617904742615,NA,flowers_landmark,It is big relative to other,0.5,NA,congruent,custom_main_text1,big,Your friend says: <br/><b>That landmark is a big sunflower.</b>
2759,What do you think your friend is saying it is small relative to?,Thu Apr 08 2021 12:59:02 GMT-0500 (Central Daylight Time),images/stripmall-landmark.png,images/buildings-parade-basic.png,39,critical,None,1,buildings,susan,NA,buildings,stripmalls,yes,Your friend goes ahead of you. You see your friend in the distance:,NA,subj,landmark,stripmall,26,buildings,NA,graduated_college,small,NA,NA,female,6746,You visit your friend who lives in another city. You take a walk and you see the following:,9,1617904742615,NA,buildings_landmark,It is small relative to other,0.5,NA,congruent,custom_main_text1,small,Your friend says: <br/><b>That small stripmall is a landmark.</b>
2759,What do you think your friend is saying it is big relative to?,Thu Apr 08 2021 12:59:02 GMT-0500 (Central Daylight Time),images/great-dane.png,images/dog-parade-basic2.png,39,critical,None,1,dogs2,susan,NA,Great Danes,dogs,yes,Your friend goes ahead of you. You see your friend in the distance:,NA,pred,prize-winner,Great Dane,26,dogs,NA,graduated_college,big,NA,NA,female,9413,You and your friend are at a pet show and you see the following:,10,1617904742615,NA,dogs2_prize,It is big relative to other,0.5,NA,congruent,custom_main_text1,big,Your friend says: <br/><b>That prize-winner is a big Great Dane.</b>
2759,What do you think your friend is saying it is big relative to?,Thu Apr 08 2021 12:59:02 GMT-0500 (Central Daylight Time),images/doberman-rescue.png,images/dog-parade-basic-rescue.png,39,critical,None,1,dogs1,susan,NA,dobermen,dogs,yes,Your friend goes ahead of you. You see your friend in the distance:,NA,subj,rescue,doberman,26,dogs,NA,graduated_college,big,NA,NA,female,7852,You visit your friend who works at an animal shelter and you see the following:,11,1617904742615,NA,dogs1_rescue,It is big relative to other,0.5,NA,congruent,custom_main_text1,big,Your friend says: <br/><b>That big doberman is a rescue.</b>
2759,What do you think your friend is saying it is big relative to?,Thu Apr 08 2021 12:59:02 GMT-0500 (Central Daylight Time),images/sunflower.png,images/flower-parade-basic.png,39,critical,None,1,flowers,susan,NA,sunflowers,flowers,yes,Your friend goes ahead of you. You see your friend in the distance:,NA,subj,present,sunflower,26,flowers,NA,graduated_college,big,NA,NA,female,7029,You and your friend are at a garden store and you see the following:,12,1617904742615,NA,flowers_present,It is big relative to other,0.5,NA,congruent,custom_main_text1,big,Your friend says: <br/><b>That big sunflower is a present.</b>
2758,<i>What do you think Speaker A meant? </i>,Thu Apr 08 2021 12:54:21 GMT-0500 (Central Daylight Time),NA,NA,39,NA,no,2,NA,mary,1,NA,NA,NA,NA,"<b> Speaker A: ""The Empire State Building is tall.""</b>",NA,NA,NA,NA,buildings,NA,NA,NA,comp_class_warmup,NA,NA,NA,In the main trials you will be asked to rephrase something a person said. The utterance will contain a word that is <i>relative</i> and your task is to figure out what it is relative to. <br /> <br /> For example: <br />,1,1617904462000,1,NA,The Empire State Building is tall relative to other,0.65,"buildings, skyscrapers, houses, constructions (choose one)",NA,comp_class_warmup,NA,NA
2758,What do you think your friend is saying it is big relative to?,Thu Apr 08 2021 12:54:21 GMT-0500 (Central Daylight Time),images/tuna_net.png,images/fish-parade-basic.png,39,critical,no,2,fish,mary,NA,tunas,fish,NA,Your friend goes ahead of you. You see your friend in the distance:,NA,pred,rescue,tuna,NA,tunas,NA,NA,big,NA,NA,NA,26761,You visit your friend who works as a marine biologist and you see the following:,1,1617904462000,NA,fish_rescue,It is big relative to other,0.65,NA,congruent,custom_main_text1,big,Your friend says: <br/><b>That rescue is a big tuna.</b>
2758,What do you think your friend is saying it is big relative to?,Thu Apr 08 2021 12:54:21 GMT-0500 (Central Daylight Time),images/doberman-rescue.png,images/dog-parade-basic-rescue.png,39,critical,no,2,dogs1,mary,NA,dobermen,dogs,NA,Your friend goes ahead of you. You see your friend in the distance:,NA,pred,rescue,doberman,NA,dobermen,NA,NA,big,NA,NA,NA,23372,You visit your friend who works at an animal shelter and you see the following:,2,1617904462000,NA,dogs1_rescue,It is big relative to other,0.65,NA,congruent,custom_main_text1,big,Your friend says: <br/><b>That rescue is a big doberman.</b>
2758,What do you think your friend is saying it is big relative to?,Thu Apr 08 2021 12:54:21 GMT-0500 (Central Daylight Time),images/skyscraper-landmark.png,images/buildings-parade-basic.png,39,critical,no,2,buildings,mary,NA,buildings,skyscrapers,NA,Your friend goes ahead of you. You see your friend in the distance:,NA,subj,landmark,skyscraper,NA,buildings,NA,NA,big,NA,NA,NA,41428,You visit your friend who lives in another city. You take a walk and you see the following:,3,1617904462000,NA,buildings_landmark,It is big relative to other,0.65,NA,congruent,custom_main_text1,big,Your friend says: <br/><b>That big skyscraper is a landmark.</b>
2758,What do you think your friend is saying it is small relative to?,Thu Apr 08 2021 12:54:21 GMT-0500 (Central Daylight Time),images/bonsai_stick.png,images/tree-parade-basic.png,39,critical,no,2,trees,mary,NA,bonsais,trees,NA,Your friend goes ahead of you. You see your friend in the distance:,NA,pred,landmark,bonsai,NA,trees,NA,NA,small,NA,NA,NA,35926,You and your friend walk to your friend's cabin in a park for the first time. You want to memorize the path and you see the following:,4,1617904462000,NA,trees_landmark,It is small relative to other,0.65,NA,congruent,custom_main_text1,small,Your friend says: <br/><b>That landmark is a small bonsai.</b>
2758,What do you think your friend is saying it is big relative to?,Thu Apr 08 2021 12:54:21 GMT-0500 (Central Daylight Time),images/eagle.png,images/bird-parade-basic.png,39,critical,no,2,birds,mary,NA,birds,eagles,NA,Your friend goes ahead of you. You see your friend in the distance:,NA,subj,rescue,eagle,NA,birds,NA,NA,big,NA,NA,NA,42773,You visit your friend who works at an animal shelter and you see the following:,5,1617904462000,NA,birds_rescue,It is big relative to other,0.65,NA,congruent,custom_main_text1,big,Your friend says: <br/><b>That big eagle is a rescue.</b>
2758,What do you think your friend is saying it is small relative to?,Thu Apr 08 2021 12:54:21 GMT-0500 (Central Daylight Time),images/dandelion-landmark.png,images/flower-parade-basic-landmark.png,39,critical,no,2,flowers,mary,NA,flowers,dandelions,NA,Your friend goes ahead of you. You see your friend in the distance:,NA,subj,landmark,dandelion,NA,flowers,NA,NA,small,NA,NA,NA,25811,You and your friend walk to a cabin you are renting for the weekend for the first time. You go along the path and you see the following:,6,1617904462000,NA,flowers_landmark,It is small relative to other,0.65,NA,congruent,custom_main_text1,small,Your friend says: <br/><b>That small dandelion is a landmark.</b>
2758,What do you think your friend is saying it is big relative to?,Thu Apr 08 2021 12:54:21 GMT-0500 (Central Daylight Time),images/redwood_sign.png,images/tree-parade-basic.png,39,critical,no,2,trees,mary,NA,redwoods,trees,NA,Your friend goes ahead of you. You see your friend in the distance:,NA,subj,landmark,redwood,NA,trees,NA,NA,big,NA,NA,NA,27663,You and your friend walk to your friend's cabin in a park for the first time. You want to memorize the path and you see the following:,7,1617904462000,NA,trees_landmark,It is big relative to other,0.65,NA,congruent,custom_main_text1,big,Your friend says: <br/><b>That big redwood is a landmark.</b>
2758,What do you think your friend is saying it is small relative to?,Thu Apr 08 2021 12:54:21 GMT-0500 (Central Daylight Time),images/hummingbird.png,images/bird-parade-basic.png,39,critical,no,2,birds,mary,NA,birds,hummingbirds,NA,Your friend goes ahead of you. You see your friend in the distance:,NA,pred,rescue,hummingbird,NA,birds,NA,NA,small,NA,NA,NA,23193,You visit your friend who works at an animal shelter and you see the following:,8,1617904462000,NA,birds_rescue,It is small relative to other,0.65,NA,congruent,custom_main_text1,small,Your friend says: <br/><b>That rescue is a small hummingbird.</b>
2758,What do you think your friend is saying it is small relative to?,Thu Apr 08 2021 12:54:21 GMT-0500 (Central Daylight Time),images/chihuahua-rescue.png,images/dog-parade-basic-rescue.png,39,critical,no,2,dogs1,mary,NA,dogs,chihuahuas,NA,Your friend goes ahead of you. You see your friend in the distance:,NA,subj,rescue,chihuahua,NA,dogs,NA,NA,small,NA,NA,NA,13336,You visit your friend who works at an animal shelter and you see the following:,9,1617904462000,NA,dogs1_rescue,It is small relative to other,0.65,NA,congruent,custom_main_text1,small,Your friend says: <br/><b>That small chihuahua is a rescue.</b>
2758,What do you think your friend is saying it is small relative to?,Thu Apr 08 2021 12:54:21 GMT-0500 (Central Daylight Time),images/stripmall-landmark.png,images/buildings-parade-basic.png,39,critical,no,2,buildings,mary,NA,stripmalls,buildings,NA,Your friend goes ahead of you. You see your friend in the distance:,NA,pred,landmark,stripmall,NA,buildings,NA,NA,small,NA,NA,NA,44312,You visit your friend who lives in another city. You take a walk and you see the following:,10,1617904462000,NA,buildings_landmark,It is small relative to other,0.65,NA,congruent,custom_main_text1,small,Your friend says: <br/><b>That landmark is a small stripmall.</b>
2758,What do you think your friend is saying it is small relative to?,Thu Apr 08 2021 12:54:21 GMT-0500 (Central Daylight Time),images/clownfish_net.png,images/fish-parade-basic.png,39,critical,no,2,fish,mary,NA,fish,clownfish,NA,Your friend goes ahead of you. You see your friend in the distance:,NA,subj,rescue,clownfish,NA,fish,NA,NA,small,NA,NA,NA,18192,You visit your friend who works as a marine biologist and you see the following:,11,1617904462000,NA,fish_rescue,It is small relative to other,0.65,NA,congruent,custom_main_text1,small,Your friend says: <br/><b>That small clownfish is a rescue.</b>
2758,What do you think your friend is saying it is big relative to?,Thu Apr 08 2021 12:54:21 GMT-0500 (Central Daylight Time),images/sunflower-landmark.png,images/flower-parade-basic-landmark.png,39,critical,no,2,flowers,mary,NA,sunflowers,flowers,NA,Your friend goes ahead of you. You see your friend in the distance:,NA,pred,landmark,sunflower,NA,sunflowers,NA,NA,big,NA,NA,NA,21764,You and your friend walk to a cabin you are renting for the weekend for the first time. You go along the path and you see the following:,12,1617904462000,NA,flowers_landmark,It is big relative to other,0.65,NA,congruent,custom_main_text1,big,Your friend says: <br/><b>That landmark is a big sunflower.</b>
2757,<i>What do you think Speaker A meant? </i>,Thu Apr 08 2021 13:44:53 GMT-0400 (EDT),NA,NA,39,NA,No,1,NA,Sarah,1,NA,NA,yes,NA,"<b> Speaker A: ""The Empire State Building is tall.""</b>",NA,NA,NA,30,Buildings,This study was weird.,graduated_college,NA,comp_class_warmup,English,male,NA,In the main trials you will be asked to rephrase something a person said. The utterance will contain a word that is <i>relative</i> and your task is to figure out what it is relative to. <br /> <br /> For example: <br />,1,1617903893340,1,NA,The Empire State Building is tall relative to other,NA,"buildings, skyscrapers, houses, constructions (choose one)",NA,comp_class_warmup,NA,NA
2757,What do you think your friend is saying it is small relative to?,Thu Apr 08 2021 13:44:53 GMT-0400 (EDT),images/dandelion-landmark.png,images/flower-parade-basic-landmark.png,39,critical,No,1,flowers,Sarah,NA,dandelions,flowers,yes,Your friend goes ahead of you. You see your friend in the distance:,NA,subj,landmark,dandelion,30,flowers,This study was weird.,graduated_college,small,NA,English,male,44087,You and your friend walk to a cabin you are renting for the weekend for the first time. You go along the path and you see the following:,1,1617903893340,NA,flowers_landmark,It is small relative to other,NA,NA,congruent,custom_main_text1,small,Your friend says: <br/><b>That small dandelion is a landmark.</b>
2757,What do you think your friend is saying it is small relative to?,Thu Apr 08 2021 13:44:53 GMT-0400 (EDT),images/hummingbird.png,images/bird-parade-basic.png,39,critical,No,1,birds,Sarah,NA,hummingbirds,birds,yes,Your friend goes ahead of you. You see your friend in the distance:,NA,subj,rescue,hummingbird,30,hummingbirds,This study was weird.,graduated_college,small,NA,English,male,39630,You visit your friend who works at an animal shelter and you see the following:,2,1617903893340,NA,birds_rescue,It is small relative to other,NA,NA,congruent,custom_main_text1,small,Your friend says: <br/><b>That small hummingbird is a rescue.</b>
2757,What do you think your friend is saying it is small relative to?,Thu Apr 08 2021 13:44:53 GMT-0400 (EDT),images/bonsai_stick.png,images/tree-parade-basic.png,39,critical,No,1,trees,Sarah,NA,bonsais,trees,yes,Your friend goes ahead of you. You see your friend in the distance:,NA,subj,landmark,bonsai,30,trees,This study was weird.,graduated_college,small,NA,English,male,30397,You and your friend walk to your friend's cabin in a park for the first time. You want to memorize the path and you see the following:,3,1617903893340,NA,trees_landmark,It is small relative to other,NA,NA,congruent,custom_main_text1,small,Your friend says: <br/><b>That small bonsai is a landmark.</b>
