submission_id,question,response1,startDate,target_picture,context_picture,experiment_id,picture2,correct1,trial_type,question1,problems,enjoyment,item,botresponse,trials,correct2,understand,text,sentence,syntax,ref_np,target,age,response,comments,picture1,response3,education,target_size,name,languages,sex,RT,correct3,context,trial_number,attempts,paraphrase,question3,fairprice,question2,response2,correct,adj_cond,trial_name,adj,utterance
2722,NA,Dobermann,Wed Dec 23 2020 20:46:37 GMT-0500 (EST),NA,NA,37,warmup/chihuahua2.png,doberman,NA,This is a,No,1,dogs1,Margaret,NA,chihuahua,yes,Please label the pictures below.,NA,NA,NA,NA,59,NA,This takes longer then what you post.,warmup/doberman2.png,Dogs,some_college,NA,NA,English,female,NA,dogs,NA,1,1,NA,This is a,1.5,These are both,Chiwawa,NA,NA,warmup1,NA,NA
2722,NA,Dobermann,Wed Dec 23 2020 20:46:37 GMT-0500 (EST),NA,NA,37,warmup/chihuahua2.png,doberman,NA,This is a,No,1,dogs1,Margaret,NA,chihuahua,yes,Please label the pictures below.,NA,NA,NA,NA,59,NA,This takes longer then what you post.,warmup/doberman2.png,Dogs,some_college,NA,NA,English,female,NA,dogs,NA,1,2,NA,This is a,1.5,These are both,Chiwawa,NA,NA,warmup1,NA,NA
2722,NA,Dobermann,Wed Dec 23 2020 20:46:37 GMT-0500 (EST),NA,NA,37,warmup/chihuahua2.png,doberman,NA,This is a,No,1,dogs1,Margaret,NA,chihuahua,yes,Please label the pictures below.,NA,NA,NA,NA,59,NA,This takes longer then what you post.,warmup/doberman2.png,Dogs,some_college,NA,NA,English,female,NA,dogs,NA,1,3,NA,This is a,1.5,These are both,Chiwawa,NA,NA,warmup1,NA,NA
2722,NA,Doberman,Wed Dec 23 2020 20:46:37 GMT-0500 (EST),NA,NA,37,warmup/chihuahua2.png,doberman,NA,This is a,No,1,dogs1,Margaret,NA,chihuahua,yes,Please label the pictures below.,NA,NA,NA,NA,59,NA,This takes longer then what you post.,warmup/doberman2.png,Dogs,some_college,NA,NA,English,female,NA,dogs,NA,1,4,NA,This is a,1.5,These are both,Chihuahua,NA,NA,warmup1,NA,NA
2722,NA,Pug,Wed Dec 23 2020 20:46:37 GMT-0500 (EST),NA,NA,37,warmup/great-dane2.png,pug,NA,This is a,No,1,dogs2,Margaret,NA,great dane,yes,Please label the pictures below.,NA,NA,NA,NA,59,NA,This takes longer then what you post.,warmup/pug2.png,Dogs,some_college,NA,NA,English,female,NA,dogs,NA,2,1,NA,This is a,1.5,These are both,Great Dane,NA,NA,warmup1,NA,NA
2722,<i>What do you think Speaker A meant? </i>,NA,Wed Dec 23 2020 20:46:37 GMT-0500 (EST),NA,NA,37,NA,NA,NA,NA,No,1,NA,Margaret,1,NA,yes,NA,"<b> Speaker A: ""The Empire State Building is tall.""</b>",NA,NA,NA,59,Buildings,This takes longer then what you post.,NA,NA,some_college,NA,comp_class_warmup,English,female,NA,NA,In the main trials you will be asked to rephrase something a person said. The utterance will contain a word that is <i>relative</i> and your task is to figure out what it is relative to. <br /> <br /> For example: <br />,1,1,The Empire State Building is tall relative to other,NA,1.5,NA,NA,"buildings, skyscrapers, houses, constructions (choose one)",NA,comp_class_warmup,NA,NA
2722,What do you think your friend is saying it is big relative to?,NA,Wed Dec 23 2020 20:46:37 GMT-0500 (EST),images/great-dane.png,images/dog-parade-basic2.png,37,NA,NA,critical,NA,No,1,dogs2,Margaret,NA,NA,yes,Your friend goes ahead of you. You see your friend in the distance:,NA,pred,prize-winner,Great Dane,59,Dogs,This takes longer then what you post.,NA,NA,some_college,big,NA,English,female,34202,NA,You and your friend are at a pet show and you see the following:,1,NA,It is big relative to other,NA,1.5,NA,NA,NA,congruent,custom_main_text1,big,Your friend says: <br/><b>That prize-winner is a big Great Dane.</b>
2722,What do you think your friend is saying it is big relative to?,NA,Wed Dec 23 2020 20:46:37 GMT-0500 (EST),images/doberman.png,images/dog-parade-basic.png,37,NA,NA,critical,NA,No,1,dogs1,Margaret,NA,NA,yes,Your friend goes ahead of you. You see your friend in the distance:,NA,subj,service-animal,doberman,59,Dogs,This takes longer then what you post.,NA,NA,some_college,big,NA,English,female,35485,NA,You and your friend are at an animal training ground and you see the following:,2,NA,It is big relative to other,NA,1.5,NA,NA,NA,congruent,custom_main_text1,big,Your friend says: <br/><b>That big doberman is a service-animal.</b>
2722,NA,Dandelion,Wed Dec 23 2020 20:46:37 GMT-0500 (EST),NA,NA,37,warmup/sunflower2.png,dandelion,NA,This is a,No,1,flowers,Margaret,NA,sunflower,yes,Please label the pictures below.,NA,NA,NA,NA,59,NA,This takes longer then what you post.,warmup/dandelion2.png,Flowers,some_college,NA,NA,English,female,NA,flowers,NA,1,1,NA,This is a,1.5,These are both,Sunflower,NA,NA,warmup2,NA,NA
2722,NA,Bonsai,Wed Dec 23 2020 20:46:37 GMT-0500 (EST),NA,NA,37,warmup/redwood2.png,bonsai,NA,This is a,No,1,trees,Margaret,NA,redwood or sequoia (choose one),yes,Please label the pictures below.,NA,NA,NA,NA,59,NA,This takes longer then what you post.,warmup/bonsai2.png,Trees,some_college,NA,NA,English,female,NA,trees,NA,2,1,NA,This is a,1.5,These are both,Redwood,NA,NA,warmup2,NA,NA
2722,What do you think your friend is saying it is small relative to?,NA,Wed Dec 23 2020 20:46:37 GMT-0500 (EST),images/dandelion.png,images/flower-parade-basic.png,37,NA,NA,critical,NA,No,1,flowers,Margaret,NA,NA,yes,Your friend goes ahead of you. You see your friend in the distance:,NA,pred,gift,dandelion,59,Flowers,This takes longer then what you post.,NA,NA,some_college,small,NA,English,female,29119,NA,You and your friend are at a garden store and you see the following:,1,NA,It is small relative to other,NA,1.5,NA,NA,NA,congruent,custom_main_text2,small,Your friend says: <br/><b>That gift is a small dandelion.</b>
2722,What do you think your friend is saying it is small relative to?,NA,Wed Dec 23 2020 20:46:37 GMT-0500 (EST),images/bonsai_stick.png,images/tree-parade-basic.png,37,NA,NA,critical,NA,No,1,trees,Margaret,NA,NA,yes,Your friend goes ahead of you. You see your friend in the distance:,NA,subj,landmark,bonsai,59,Trees,This takes longer then what you post.,NA,NA,some_college,small,NA,English,female,50902,NA,You and your friend walk to your friend's cabin in a park for the first time. You want to memorize the path and you see the following:,2,NA,It is small relative to other,NA,1.5,NA,NA,NA,congruent,custom_main_text2,small,Your friend says: <br/><b>That small bonsai is a landmark.</b>
2721,NA,Sunflower,Wed Dec 23 2020 17:47:07 GMT-0800 (Pacific Standard Time),NA,NA,37,warmup/dandelion2.png,sunflower,NA,This is a,no.,1,flowers,susan,NA,dandelion,yes,Please label the pictures below.,NA,NA,NA,NA,27,NA,NA,warmup/sunflower2.png,Flowers,graduated_college,NA,NA,"Tagalog, English",female,NA,flowers,NA,1,1,NA,This is a,1,These are both,Dandilion,NA,NA,warmup1,NA,NA
2721,NA,Sunflower,Wed Dec 23 2020 17:47:07 GMT-0800 (Pacific Standard Time),NA,NA,37,warmup/dandelion2.png,sunflower,NA,This is a,no.,1,flowers,susan,NA,dandelion,yes,Please label the pictures below.,NA,NA,NA,NA,27,NA,NA,warmup/sunflower2.png,Flowers,graduated_college,NA,NA,"Tagalog, English",female,NA,flowers,NA,1,2,NA,This is a,1,These are both,Dandelion,NA,NA,warmup1,NA,NA
2721,NA,Bonsai,Wed Dec 23 2020 17:47:07 GMT-0800 (Pacific Standard Time),NA,NA,37,warmup/redwood2.png,bonsai,NA,This is a,no.,1,trees,susan,NA,redwood or sequoia (choose one),yes,Please label the pictures below.,NA,NA,NA,NA,27,NA,NA,warmup/bonsai2.png,Trees,graduated_college,NA,NA,"Tagalog, English",female,NA,trees,NA,2,1,NA,This is a,1,These are both,Redwood,NA,NA,warmup1,NA,NA
2721,<i>What do you think Speaker A meant? </i>,NA,Wed Dec 23 2020 17:47:07 GMT-0800 (Pacific Standard Time),NA,NA,37,NA,NA,NA,NA,no.,1,NA,susan,1,NA,yes,NA,"<b> Speaker A: ""The Empire State Building is tall.""</b>",NA,NA,NA,27,buildings,NA,NA,NA,graduated_college,NA,comp_class_warmup,"Tagalog, English",female,NA,NA,In the main trials you will be asked to rephrase something a person said. The utterance will contain a word that is <i>relative</i> and your task is to figure out what it is relative to. <br /> <br /> For example: <br />,1,1,The Empire State Building is tall relative to other,NA,1,NA,NA,"buildings, skyscrapers, houses, constructions (choose one)",NA,comp_class_warmup,NA,NA
2721,What do you think your friend is saying it is small relative to?,NA,Wed Dec 23 2020 17:47:07 GMT-0800 (Pacific Standard Time),images/bonsai_stick.png,images/tree-parade-basic.png,37,NA,NA,critical,NA,no.,1,trees,susan,NA,NA,yes,Your friend goes ahead of you. You see your friend in the distance:,NA,subj,landmark,bonsai,27,trees,NA,NA,NA,graduated_college,small,NA,"Tagalog, English",female,22579,NA,You and your friend walk to your friend's cabin in a park for the first time. You want to memorize the path and you see the following:,1,NA,It is small relative to other,NA,1,NA,NA,NA,congruent,custom_main_text1,small,Your friend says: <br/><b>That small bonsai is a landmark.</b>
2721,What do you think your friend is saying it is big relative to?,NA,Wed Dec 23 2020 17:47:07 GMT-0800 (Pacific Standard Time),images/sunflower.png,images/flower-parade-basic.png,37,NA,NA,critical,NA,no.,1,flowers,susan,NA,NA,yes,Your friend goes ahead of you. You see your friend in the distance:,NA,pred,gift,sunflower,27,flowers,NA,NA,NA,graduated_college,big,NA,"Tagalog, English",female,24619,NA,You and your friend are at a garden store and you see the following:,2,NA,It is big relative to other,NA,1,NA,NA,NA,congruent,custom_main_text1,big,Your friend says: <br/><b>That gift is a big sunflower.</b>
2721,NA,pug,Wed Dec 23 2020 17:47:07 GMT-0800 (Pacific Standard Time),NA,NA,37,warmup/great-dane2.png,pug,NA,This is a,no.,1,dogs2,susan,NA,great dane,yes,Please label the pictures below.,NA,NA,NA,NA,27,NA,NA,warmup/pug2.png,dogs,graduated_college,NA,NA,"Tagalog, English",female,NA,dogs,NA,1,1,NA,This is a,1,These are both,great dane,NA,NA,warmup2,NA,NA
2721,NA,clownfish,Wed Dec 23 2020 17:47:07 GMT-0800 (Pacific Standard Time),NA,NA,37,warmup/tuna2.png,clownfish,NA,This is a,no.,1,fish,susan,NA,tuna,yes,Please label the pictures below.,NA,NA,NA,NA,27,NA,NA,warmup/clownfish2.png,fish,graduated_college,NA,NA,"Tagalog, English",female,NA,fish,NA,2,1,NA,This is a,1,These are both,tuna,NA,NA,warmup2,NA,NA
2721,What do you think your friend is saying it is small relative to?,NA,Wed Dec 23 2020 17:47:07 GMT-0800 (Pacific Standard Time),images/pug.png,images/dog-parade-basic2.png,37,NA,NA,critical,NA,no.,1,dogs2,susan,NA,NA,yes,Your friend goes ahead of you. You see your friend in the distance:,NA,pred,prize-winner,pug,27,dogs,NA,NA,NA,graduated_college,small,NA,"Tagalog, English",female,16887,NA,You and your friend are at a pet show and you see the following:,1,NA,It is small relative to other,NA,1,NA,NA,NA,congruent,custom_main_text2,small,Your friend says: <br/><b>That prize-winner is a small pug.</b>
2721,What do you think your friend is saying it is big relative to?,NA,Wed Dec 23 2020 17:47:07 GMT-0800 (Pacific Standard Time),images/tuna_net.png,images/fish-parade-basic.png,37,NA,NA,critical,NA,no.,1,fish,susan,NA,NA,yes,Your friend goes ahead of you. You see your friend in the distance:,NA,subj,rescue,tuna,27,fish,NA,NA,NA,graduated_college,big,NA,"Tagalog, English",female,10990,NA,You visit your friend who works as a marine biologist and you see the following:,2,NA,It is big relative to other,NA,1,NA,NA,NA,congruent,custom_main_text2,big,Your friend says: <br/><b>That big tuna is a rescue.</b>
2720,NA,eagle,Wed Dec 23 2020 20:41:43 GMT-0500 (Eastern Standard Time),NA,NA,37,warmup/hummingbird2.png,eagle,NA,This is a,no,2,birds,Jessica,NA,hummingbird,yes,Please label the pictures below.,NA,NA,NA,NA,54,NA,NA,warmup/eagle2.png,birds,higher_degree,NA,NA,English,female,NA,birds,NA,1,1,NA,This is an,1.75,These are both,hummingbird,NA,NA,warmup1,NA,NA
2720,NA,bonsai,Wed Dec 23 2020 20:41:43 GMT-0500 (Eastern Standard Time),NA,NA,37,warmup/redwood2.png,bonsai,NA,This is a,no,2,trees,Jessica,NA,redwood or sequoia (choose one),yes,Please label the pictures below.,NA,NA,NA,NA,54,NA,NA,warmup/bonsai2.png,trees,higher_degree,NA,NA,English,female,NA,trees,NA,2,1,NA,This is a,1.75,These are both,pine,NA,NA,warmup1,NA,NA
2720,NA,bonsai,Wed Dec 23 2020 20:41:43 GMT-0500 (Eastern Standard Time),NA,NA,37,warmup/redwood2.png,bonsai,NA,This is a,no,2,trees,Jessica,NA,redwood or sequoia (choose one),yes,Please label the pictures below.,NA,NA,NA,NA,54,NA,NA,warmup/bonsai2.png,trees,higher_degree,NA,NA,English,female,NA,trees,NA,2,2,NA,This is a,1.75,These are both,redwood,NA,NA,warmup1,NA,NA
2720,<i>What do you think Speaker A meant? </i>,NA,Wed Dec 23 2020 20:41:43 GMT-0500 (Eastern Standard Time),NA,NA,37,NA,NA,NA,NA,no,2,NA,Jessica,1,NA,yes,NA,"<b> Speaker A: ""The Empire State Building is tall.""</b>",NA,NA,NA,54,buildings,NA,NA,NA,higher_degree,NA,comp_class_warmup,English,female,NA,NA,In the main trials you will be asked to rephrase something a person said. The utterance will contain a word that is <i>relative</i> and your task is to figure out what it is relative to. <br /> <br /> For example: <br />,1,1,The Empire State Building is tall relative to other,NA,1.75,NA,NA,"buildings, skyscrapers, houses, constructions (choose one)",NA,comp_class_warmup,NA,NA
2720,What do you think your friend is saying it is small relative to?,NA,Wed Dec 23 2020 20:41:43 GMT-0500 (Eastern Standard Time),images/hummingbird.png,images/bird-parade-basic.png,37,NA,NA,critical,NA,no,2,birds,Jessica,NA,NA,yes,Your friend goes ahead of you. You see your friend in the distance:,NA,subj,rescue,hummingbird,54,birds,NA,NA,NA,higher_degree,small,NA,English,female,44832,NA,You visit your friend who works at an animal shelter and you see the following:,1,NA,It is small relative to other,NA,1.75,NA,NA,NA,congruent,custom_main_text1,small,Your friend says: <br/><b>That small hummingbird is a rescue.</b>
2720,What do you think your friend is saying it is small relative to?,NA,Wed Dec 23 2020 20:41:43 GMT-0500 (Eastern Standard Time),images/bonsai_stick.png,images/tree-parade-basic.png,37,NA,NA,critical,NA,no,2,trees,Jessica,NA,NA,yes,Your friend goes ahead of you. You see your friend in the distance:,NA,pred,landmark,bonsai,54,trees,NA,NA,NA,higher_degree,small,NA,English,female,36479,NA,You and your friend walk to your friend's cabin in a park for the first time. You want to memorize the path and you see the following:,2,NA,It is small relative to other,NA,1.75,NA,NA,NA,congruent,custom_main_text1,small,Your friend says: <br/><b>That landmark is a small bonsai.</b>
2720,NA,doberman,Wed Dec 23 2020 20:41:43 GMT-0500 (Eastern Standard Time),NA,NA,37,warmup/chihuahua2.png,doberman,NA,This is a,no,2,dogs1,Jessica,NA,chihuahua,yes,Please label the pictures below.,NA,NA,NA,NA,54,NA,NA,warmup/doberman2.png,dogs,higher_degree,NA,NA,English,female,NA,dogs,NA,1,1,NA,This is a,1.75,These are both,chihuahua,NA,NA,warmup2,NA,NA
2720,NA,Great Dane,Wed Dec 23 2020 20:41:43 GMT-0500 (Eastern Standard Time),NA,NA,37,warmup/pug2.png,great dane,NA,This is a,no,2,dogs2,Jessica,NA,pug,yes,Please label the pictures below.,NA,NA,NA,NA,54,NA,NA,warmup/great-dane2.png,dogs,higher_degree,NA,NA,English,female,NA,dogs,NA,2,1,NA,This is a,1.75,These are both,pug,NA,NA,warmup2,NA,NA
2720,What do you think your friend is saying it is big relative to?,NA,Wed Dec 23 2020 20:41:43 GMT-0500 (Eastern Standard Time),images/great-dane.png,images/dog-parade-basic2.png,37,NA,NA,critical,NA,no,2,dogs2,Jessica,NA,NA,yes,Your friend goes ahead of you. You see your friend in the distance:,NA,subj,prize-winner,Great Dane,54,dogs,NA,NA,NA,higher_degree,big,NA,English,female,20008,NA,You and your friend are at a pet show and you see the following:,1,NA,It is big relative to other,NA,1.75,NA,NA,NA,congruent,custom_main_text2,big,Your friend says: <br/><b>That big Great Dane is a prize-winner.</b>
2720,What do you think your friend is saying it is big relative to?,NA,Wed Dec 23 2020 20:41:43 GMT-0500 (Eastern Standard Time),images/doberman.png,images/dog-parade-basic.png,37,NA,NA,critical,NA,no,2,dogs1,Jessica,NA,NA,yes,Your friend goes ahead of you. You see your friend in the distance:,NA,pred,service-animal,doberman,54,dogs,NA,NA,NA,higher_degree,big,NA,English,female,30639,NA,You and your friend are at an animal training ground and you see the following:,2,NA,It is big relative to other,NA,1.75,NA,NA,NA,congruent,custom_main_text2,big,Your friend says: <br/><b>That service-animal is a big doberman.</b>
2719,NA,great dane,Wed Dec 23 2020 19:37:21 GMT-0600 (Central Standard Time),NA,NA,37,warmup/pug2.png,great dane,NA,This is a,nope,1,dogs2,Jessica,NA,pug,NA,Please label the pictures below.,NA,NA,NA,NA,NA,NA,Had dun with it. It was a little confusing at times though,warmup/great-dane2.png,dogs,graduated_high_school,NA,NA,english,NA,NA,dogs,NA,1,1,NA,This is a,1,These are both,pug,NA,NA,warmup1,NA,NA
2719,NA,chihuahua,Wed Dec 23 2020 19:37:21 GMT-0600 (Central Standard Time),NA,NA,37,warmup/doberman2.png,chihuahua,NA,This is a,nope,1,dogs1,Jessica,NA,doberman,NA,Please label the pictures below.,NA,NA,NA,NA,NA,NA,Had dun with it. It was a little confusing at times though,warmup/chihuahua2.png,dogs,graduated_high_school,NA,NA,english,NA,NA,dogs,NA,2,1,NA,This is a,1,These are both,Doberman,NA,NA,warmup1,NA,NA
2719,<i>What do you think Speaker A meant? </i>,NA,Wed Dec 23 2020 19:37:21 GMT-0600 (Central Standard Time),NA,NA,37,NA,NA,NA,NA,nope,1,NA,Jessica,1,NA,NA,NA,"<b> Speaker A: ""The Empire State Building is tall.""</b>",NA,NA,NA,NA,buildings,Had dun with it. It was a little confusing at times though,NA,NA,graduated_high_school,NA,comp_class_warmup,english,NA,NA,NA,In the main trials you will be asked to rephrase something a person said. The utterance will contain a word that is <i>relative</i> and your task is to figure out what it is relative to. <br /> <br /> For example: <br />,1,1,The Empire State Building is tall relative to other,NA,1,NA,NA,"buildings, skyscrapers, houses, constructions (choose one)",NA,comp_class_warmup,NA,NA
2719,What do you think your friend is saying it is big relative to?,NA,Wed Dec 23 2020 19:37:21 GMT-0600 (Central Standard Time),images/doberman.png,images/dog-parade-basic.png,37,NA,NA,critical,NA,nope,1,dogs1,Jessica,NA,NA,NA,Your friend goes ahead of you. You see your friend in the distance:,NA,pred,service-animal,doberman,NA,Dobermans,Had dun with it. It was a little confusing at times though,NA,NA,graduated_high_school,big,NA,english,NA,31427,NA,You and your friend are at an animal training ground and you see the following:,1,NA,It is big relative to other,NA,1,NA,NA,NA,congruent,custom_main_text1,big,Your friend says: <br/><b>That service-animal is a big doberman.</b>
2719,What do you think your friend is saying it is small relative to?,NA,Wed Dec 23 2020 19:37:21 GMT-0600 (Central Standard Time),images/pug.png,images/dog-parade-basic2.png,37,NA,NA,critical,NA,nope,1,dogs2,Jessica,NA,NA,NA,Your friend goes ahead of you. You see your friend in the distance:,NA,subj,prize-winner,pug,NA,pugs,Had dun with it. It was a little confusing at times though,NA,NA,graduated_high_school,small,NA,english,NA,13813,NA,You and your friend are at a pet show and you see the following:,2,NA,It is small relative to other,NA,1,NA,NA,NA,congruent,custom_main_text1,small,Your friend says: <br/><b>That small pug is a prize-winner.</b>
2719,NA,clown fish,Wed Dec 23 2020 19:37:21 GMT-0600 (Central Standard Time),NA,NA,37,warmup/tuna2.png,clownfish,NA,This is a,nope,1,fish,Jessica,NA,tuna,NA,Please label the pictures below.,NA,NA,NA,NA,NA,NA,Had dun with it. It was a little confusing at times though,warmup/clownfish2.png,fish,graduated_high_school,NA,NA,english,NA,NA,fish,NA,1,1,NA,This is a,1,These are both,tuna,NA,NA,warmup2,NA,NA
2719,NA,clownfish,Wed Dec 23 2020 19:37:21 GMT-0600 (Central Standard Time),NA,NA,37,warmup/tuna2.png,clownfish,NA,This is a,nope,1,fish,Jessica,NA,tuna,NA,Please label the pictures below.,NA,NA,NA,NA,NA,NA,Had dun with it. It was a little confusing at times though,warmup/clownfish2.png,fish,graduated_high_school,NA,NA,english,NA,NA,fish,NA,1,2,NA,This is a,1,These are both,tuna,NA,NA,warmup2,NA,NA
2719,NA,bonsai,Wed Dec 23 2020 19:37:21 GMT-0600 (Central Standard Time),NA,NA,37,warmup/redwood2.png,bonsai,NA,This is a,nope,1,trees,Jessica,NA,redwood or sequoia (choose one),NA,Please label the pictures below.,NA,NA,NA,NA,NA,NA,Had dun with it. It was a little confusing at times though,warmup/bonsai2.png,trees,graduated_high_school,NA,NA,english,NA,NA,trees,NA,2,1,NA,This is a,1,These are both,redwood,NA,NA,warmup2,NA,NA
2719,What do you think your friend is saying it is big relative to?,NA,Wed Dec 23 2020 19:37:21 GMT-0600 (Central Standard Time),images/tuna_net.png,images/fish-parade-basic.png,37,NA,NA,critical,NA,nope,1,fish,Jessica,NA,NA,NA,Your friend goes ahead of you. You see your friend in the distance:,NA,subj,rescue,tuna,NA,tuna,Had dun with it. It was a little confusing at times though,NA,NA,graduated_high_school,big,NA,english,NA,21654,NA,You visit your friend who works as a marine biologist and you see the following:,1,NA,It is big relative to other,NA,1,NA,NA,NA,congruent,custom_main_text2,big,Your friend says: <br/><b>That big tuna is a rescue.</b>
2719,What do you think your friend is saying it is small relative to?,NA,Wed Dec 23 2020 19:37:21 GMT-0600 (Central Standard Time),images/bonsai_stick.png,images/tree-parade-basic.png,37,NA,NA,critical,NA,nope,1,trees,Jessica,NA,NA,NA,Your friend goes ahead of you. You see your friend in the distance:,NA,pred,landmark,bonsai,NA,trees,Had dun with it. It was a little confusing at times though,NA,NA,graduated_high_school,small,NA,english,NA,26179,NA,You and your friend walk to your friend's cabin in a park for the first time. You want to memorize the path and you see the following:,2,NA,It is small relative to other,NA,1,NA,NA,NA,congruent,custom_main_text2,small,Your friend says: <br/><b>That landmark is a small bonsai.</b>
2718,NA,Tuna,Wed Dec 23 2020 19:37:33 GMT-0600 (CST),NA,NA,37,warmup/clownfish2.png,tuna,NA,This is a,No,1,fish,susan,NA,clownfish,yes,Please label the pictures below.,NA,NA,NA,NA,40,NA,None,warmup/tuna2.png,Fish,graduated_high_school,NA,NA,English,female,NA,fish,NA,1,1,NA,This is a,NA,These are both,Clownfish,NA,NA,warmup1,NA,NA
2718,NA,Dandelion,Wed Dec 23 2020 19:37:33 GMT-0600 (CST),NA,NA,37,warmup/sunflower2.png,dandelion,NA,This is a,No,1,flowers,susan,NA,sunflower,yes,Please label the pictures below.,NA,NA,NA,NA,40,NA,None,warmup/dandelion2.png,Flowers,graduated_high_school,NA,NA,English,female,NA,flowers,NA,2,1,NA,This is a,NA,These are both,Sunflower,NA,NA,warmup1,NA,NA
2718,<i>What do you think Speaker A meant? </i>,NA,Wed Dec 23 2020 19:37:33 GMT-0600 (CST),NA,NA,37,NA,NA,NA,NA,No,1,NA,susan,1,NA,yes,NA,"<b> Speaker A: ""The Empire State Building is tall.""</b>",NA,NA,NA,40,Buildings,None,NA,NA,graduated_high_school,NA,comp_class_warmup,English,female,NA,NA,In the main trials you will be asked to rephrase something a person said. The utterance will contain a word that is <i>relative</i> and your task is to figure out what it is relative to. <br /> <br /> For example: <br />,1,1,The Empire State Building is tall relative to other,NA,NA,NA,NA,"buildings, skyscrapers, houses, constructions (choose one)",NA,comp_class_warmup,NA,NA
2718,What do you think your friend is saying it is big relative to?,NA,Wed Dec 23 2020 19:37:33 GMT-0600 (CST),images/sunflower.png,images/flower-parade-basic.png,37,NA,NA,critical,NA,No,1,flowers,susan,NA,NA,yes,Your friend goes ahead of you. You see your friend in the distance:,NA,pred,gift,sunflower,40,Sunflowers,None,NA,NA,graduated_high_school,big,NA,English,female,28941,NA,You and your friend are at a garden store and you see the following:,1,NA,It is big relative to other,NA,NA,NA,NA,NA,congruent,custom_main_text1,big,Your friend says: <br/><b>That gift is a big sunflower.</b>
2718,What do you think your friend is saying it is small relative to?,NA,Wed Dec 23 2020 19:37:33 GMT-0600 (CST),images/clownfish_net.png,images/fish-parade-basic.png,37,NA,NA,critical,NA,No,1,fish,susan,NA,NA,yes,Your friend goes ahead of you. You see your friend in the distance:,NA,subj,rescue,clownfish,40,Fish in the tank,None,NA,NA,graduated_high_school,small,NA,English,female,29716,NA,You visit your friend who works as a marine biologist and you see the following:,2,NA,It is small relative to other,NA,NA,NA,NA,NA,congruent,custom_main_text1,small,Your friend says: <br/><b>That small clownfish is a rescue.</b>
2718,NA,Great Dane,Wed Dec 23 2020 19:37:33 GMT-0600 (CST),NA,NA,37,warmup/pug2.png,great dane,NA,This is a,No,1,dogs2,susan,NA,pug,yes,Please label the pictures below.,NA,NA,NA,NA,40,NA,None,warmup/great-dane2.png,Dogs,graduated_high_school,NA,NA,English,female,NA,dogs,NA,1,1,NA,This is a,NA,These are both,Pug,NA,NA,warmup2,NA,NA
2718,NA,Chihuahua,Wed Dec 23 2020 19:37:33 GMT-0600 (CST),NA,NA,37,warmup/doberman2.png,chihuahua,NA,This is a,No,1,dogs1,susan,NA,doberman,yes,Please label the pictures below.,NA,NA,NA,NA,40,NA,None,warmup/chihuahua2.png,Dogs,graduated_high_school,NA,NA,English,female,NA,dogs,NA,2,1,NA,This is a,NA,These are both,Doberman,NA,NA,warmup2,NA,NA
2718,What do you think your friend is saying it is big relative to?,NA,Wed Dec 23 2020 19:37:33 GMT-0600 (CST),images/great-dane.png,images/dog-parade-basic2.png,37,NA,NA,critical,NA,No,1,dogs2,susan,NA,NA,yes,Your friend goes ahead of you. You see your friend in the distance:,NA,subj,prize-winner,Great Dane,40,Dogs,None,NA,NA,graduated_high_school,big,NA,English,female,25506,NA,You and your friend are at a pet show and you see the following:,1,NA,It is big relative to other,NA,NA,NA,NA,NA,congruent,custom_main_text2,big,Your friend says: <br/><b>That big Great Dane is a prize-winner.</b>
2718,What do you think your friend is saying it is small relative to?,NA,Wed Dec 23 2020 19:37:33 GMT-0600 (CST),images/chihuahua.png,images/dog-parade-basic.png,37,NA,NA,critical,NA,No,1,dogs1,susan,NA,NA,yes,Your friend goes ahead of you. You see your friend in the distance:,NA,pred,service-animal,chihuahua,40,The other dogs,None,NA,NA,graduated_high_school,small,NA,English,female,29653,NA,You and your friend are at an animal training ground and you see the following:,2,NA,It is small relative to other,NA,NA,NA,NA,NA,congruent,custom_main_text2,small,Your friend says: <br/><b>That service-animal is a small chihuahua.</b>
2717,NA,Great Dane,Wed Dec 23 2020 20:40:39 GMT-0500 (Eastern Standard Time),NA,NA,37,warmup/pug2.png,great dane,NA,This is a,NA,1,dogs2,mary,NA,pug,yes,Please label the pictures below.,NA,NA,NA,NA,28,NA,NA,warmup/great-dane2.png,Dogs,higher_degree,NA,NA,English,female,NA,dogs,NA,1,1,NA,This is a,0.75,These are both,Pug,NA,NA,warmup1,NA,NA
2717,NA,Sunflower,Wed Dec 23 2020 20:40:39 GMT-0500 (Eastern Standard Time),NA,NA,37,warmup/dandelion2.png,sunflower,NA,This is a,NA,1,flowers,mary,NA,dandelion,yes,Please label the pictures below.,NA,NA,NA,NA,28,NA,NA,warmup/sunflower2.png,Flowers,higher_degree,NA,NA,English,female,NA,flowers,NA,2,1,NA,This is a,0.75,These are both,Dandelion,NA,NA,warmup1,NA,NA
2717,<i>What do you think Speaker A meant? </i>,NA,Wed Dec 23 2020 20:40:39 GMT-0500 (Eastern Standard Time),NA,NA,37,NA,NA,NA,NA,NA,1,NA,mary,1,NA,yes,NA,"<b> Speaker A: ""The Empire State Building is tall.""</b>",NA,NA,NA,28,Buildings,NA,NA,NA,higher_degree,NA,comp_class_warmup,English,female,NA,NA,In the main trials you will be asked to rephrase something a person said. The utterance will contain a word that is <i>relative</i> and your task is to figure out what it is relative to. <br /> <br /> For example: <br />,1,1,The Empire State Building is tall relative to other,NA,0.75,NA,NA,"buildings, skyscrapers, houses, constructions (choose one)",NA,comp_class_warmup,NA,NA
2717,What do you think your friend is saying it is big relative to?,NA,Wed Dec 23 2020 20:40:39 GMT-0500 (Eastern Standard Time),images/sunflower.png,images/flower-parade-basic.png,37,NA,NA,critical,NA,NA,1,flowers,mary,NA,NA,yes,Your friend goes ahead of you. You see your friend in the distance:,NA,subj,gift,sunflower,28,Flowers,NA,NA,NA,higher_degree,big,NA,English,female,25761,NA,You and your friend are at a garden store and you see the following:,1,NA,It is big relative to other,NA,0.75,NA,NA,NA,congruent,custom_main_text1,big,Your friend says: <br/><b>That big sunflower is a gift.</b>
2717,What do you think your friend is saying it is small relative to?,NA,Wed Dec 23 2020 20:40:39 GMT-0500 (Eastern Standard Time),images/pug.png,images/dog-parade-basic2.png,37,NA,NA,critical,NA,NA,1,dogs2,mary,NA,NA,yes,Your friend goes ahead of you. You see your friend in the distance:,NA,pred,prize-winner,pug,28,Dogs,NA,NA,NA,higher_degree,small,NA,English,female,21311,NA,You and your friend are at a pet show and you see the following:,2,NA,It is small relative to other,NA,0.75,NA,NA,NA,congruent,custom_main_text1,small,Your friend says: <br/><b>That prize-winner is a small pug.</b>
2717,NA,Tuna,Wed Dec 23 2020 20:40:39 GMT-0500 (Eastern Standard Time),NA,NA,37,warmup/clownfish2.png,tuna,NA,This is a,NA,1,fish,mary,NA,clownfish,yes,Please label the pictures below.,NA,NA,NA,NA,28,NA,NA,warmup/tuna2.png,Fish,higher_degree,NA,NA,English,female,NA,fish,NA,1,1,NA,This is a,0.75,These are both,Clownfish,NA,NA,warmup2,NA,NA
2717,NA,Doberman,Wed Dec 23 2020 20:40:39 GMT-0500 (Eastern Standard Time),NA,NA,37,warmup/chihuahua2.png,doberman,NA,This is a,NA,1,dogs1,mary,NA,chihuahua,yes,Please label the pictures below.,NA,NA,NA,NA,28,NA,NA,warmup/doberman2.png,Dogs,higher_degree,NA,NA,English,female,NA,dogs,NA,2,1,NA,This is a,0.75,These are both,Chihuahua,NA,NA,warmup2,NA,NA
2717,What do you think your friend is saying it is small relative to?,NA,Wed Dec 23 2020 20:40:39 GMT-0500 (Eastern Standard Time),images/chihuahua.png,images/dog-parade-basic.png,37,NA,NA,critical,NA,NA,1,dogs1,mary,NA,NA,yes,Your friend goes ahead of you. You see your friend in the distance:,NA,subj,service-animal,chihuahua,28,Dogs,NA,NA,NA,higher_degree,small,NA,English,female,14717,NA,You and your friend are at an animal training ground and you see the following:,1,NA,It is small relative to other,NA,0.75,NA,NA,NA,congruent,custom_main_text2,small,Your friend says: <br/><b>That small chihuahua is a service-animal.</b>
2717,What do you think your friend is saying it is big relative to?,NA,Wed Dec 23 2020 20:40:39 GMT-0500 (Eastern Standard Time),images/tuna_net.png,images/fish-parade-basic.png,37,NA,NA,critical,NA,NA,1,fish,mary,NA,NA,yes,Your friend goes ahead of you. You see your friend in the distance:,NA,pred,rescue,tuna,28,Fish,NA,NA,NA,higher_degree,big,NA,English,female,14916,NA,You visit your friend who works as a marine biologist and you see the following:,2,NA,It is big relative to other,NA,0.75,NA,NA,NA,congruent,custom_main_text2,big,Your friend says: <br/><b>That rescue is a big tuna.</b>
2716,NA,Doberman,Wed Dec 23 2020 18:37:15 GMT-0700 (MST),NA,NA,37,warmup/chihuahua2.png,doberman,NA,This is a,No,1,dogs1,Susan,NA,chihuahua,yes,Please label the pictures below.,NA,NA,NA,NA,34,NA,None,warmup/doberman2.png,Dogs,graduated_college,NA,NA,English,female,NA,dogs,NA,1,1,NA,This is a,NA,These are both,Chihuahua,NA,NA,warmup1,NA,NA
2716,NA,Clownfish,Wed Dec 23 2020 18:37:15 GMT-0700 (MST),NA,NA,37,warmup/tuna2.png,clownfish,NA,This is a,No,1,fish,Susan,NA,tuna,yes,Please label the pictures below.,NA,NA,NA,NA,34,NA,None,warmup/clownfish2.png,Fish,graduated_college,NA,NA,English,female,NA,fish,NA,2,1,NA,This is a,NA,These are both,Tuna,NA,NA,warmup1,NA,NA
2716,<i>What do you think Speaker A meant? </i>,NA,Wed Dec 23 2020 18:37:15 GMT-0700 (MST),NA,NA,37,NA,NA,NA,NA,No,1,NA,Susan,1,NA,yes,NA,"<b> Speaker A: ""The Empire State Building is tall.""</b>",NA,NA,NA,34,Buildings,None,NA,NA,graduated_college,NA,comp_class_warmup,English,female,NA,NA,In the main trials you will be asked to rephrase something a person said. The utterance will contain a word that is <i>relative</i> and your task is to figure out what it is relative to. <br /> <br /> For example: <br />,1,1,The Empire State Building is tall relative to other,NA,NA,NA,NA,"buildings, skyscrapers, houses, constructions (choose one)",NA,comp_class_warmup,NA,NA
2716,What do you think your friend is saying it is small relative to?,NA,Wed Dec 23 2020 18:37:15 GMT-0700 (MST),images/chihuahua.png,images/dog-parade-basic.png,37,NA,NA,critical,NA,No,1,dogs1,Susan,NA,NA,yes,Your friend goes ahead of you. You see your friend in the distance:,NA,subj,service-animal,chihuahua,34,The other chihuahua,None,NA,NA,graduated_college,small,NA,English,female,53264,NA,You and your friend are at an animal training ground and you see the following:,1,NA,It is small relative to other,NA,NA,NA,NA,NA,congruent,custom_main_text1,small,Your friend says: <br/><b>That small chihuahua is a service-animal.</b>
2716,What do you think your friend is saying it is small relative to?,NA,Wed Dec 23 2020 18:37:15 GMT-0700 (MST),images/clownfish_net.png,images/fish-parade-basic.png,37,NA,NA,critical,NA,No,1,fish,Susan,NA,NA,yes,Your friend goes ahead of you. You see your friend in the distance:,NA,pred,rescue,clownfish,34,Other clownfish,None,NA,NA,graduated_college,small,NA,English,female,50062,NA,You visit your friend who works as a marine biologist and you see the following:,2,NA,It is small relative to other,NA,NA,NA,NA,NA,congruent,custom_main_text1,small,Your friend says: <br/><b>That rescue is a small clownfish.</b>
2716,NA,Pug,Wed Dec 23 2020 18:37:15 GMT-0700 (MST),NA,NA,37,warmup/great-dane2.png,pug,NA,This is a,No,1,dogs2,Susan,NA,great dane,yes,Please label the pictures below.,NA,NA,NA,NA,34,NA,None,warmup/pug2.png,Dogs,graduated_college,NA,NA,English,female,NA,dogs,NA,1,1,NA,This is a,NA,These are both,Great Dane,NA,NA,warmup2,NA,NA
2716,NA,Sunflower,Wed Dec 23 2020 18:37:15 GMT-0700 (MST),NA,NA,37,warmup/dandelion2.png,sunflower,NA,This is a,No,1,flowers,Susan,NA,dandelion,yes,Please label the pictures below.,NA,NA,NA,NA,34,NA,None,warmup/sunflower2.png,Flowers,graduated_college,NA,NA,English,female,NA,flowers,NA,2,1,NA,This is a,NA,These are both,Dandelion,NA,NA,warmup2,NA,NA
2716,What do you think your friend is saying it is big relative to?,NA,Wed Dec 23 2020 18:37:15 GMT-0700 (MST),images/sunflower.png,images/flower-parade-basic.png,37,NA,NA,critical,NA,No,1,flowers,Susan,NA,NA,yes,Your friend goes ahead of you. You see your friend in the distance:,NA,subj,gift,sunflower,34,the other flowers,None,NA,NA,graduated_college,big,NA,English,female,23503,NA,You and your friend are at a garden store and you see the following:,1,NA,It is big relative to other,NA,NA,NA,NA,NA,congruent,custom_main_text2,big,Your friend says: <br/><b>That big sunflower is a gift.</b>
2716,What do you think your friend is saying it is big relative to?,NA,Wed Dec 23 2020 18:37:15 GMT-0700 (MST),images/great-dane.png,images/dog-parade-basic2.png,37,NA,NA,critical,NA,No,1,dogs2,Susan,NA,NA,yes,Your friend goes ahead of you. You see your friend in the distance:,NA,pred,prize-winner,Great Dane,34,The other Great Dane,None,NA,NA,graduated_college,big,NA,English,female,26209,NA,You and your friend are at a pet show and you see the following:,2,NA,It is big relative to other,NA,NA,NA,NA,NA,congruent,custom_main_text2,big,Your friend says: <br/><b>That prize-winner is a big Great Dane.</b>
2715,NA,Hummungbird,Wed Dec 23 2020 20:37:09 GMT-0500 (EST),NA,NA,37,warmup/eagle2.png,hummingbird,NA,This is a,No,2,birds,Margaret,NA,eagle,yes,Please label the pictures below.,NA,NA,NA,NA,32,NA,Interesting Survey I hope I did it right!,warmup/hummingbird2.png,Birds,graduated_high_school,NA,NA,English,female,NA,birds,NA,1,1,NA,This is an,NA,These are both,Eagle,NA,NA,warmup1,NA,NA
2715,NA,Hummingbird,Wed Dec 23 2020 20:37:09 GMT-0500 (EST),NA,NA,37,warmup/eagle2.png,hummingbird,NA,This is a,No,2,birds,Margaret,NA,eagle,yes,Please label the pictures below.,NA,NA,NA,NA,32,NA,Interesting Survey I hope I did it right!,warmup/hummingbird2.png,Birds,graduated_high_school,NA,NA,English,female,NA,birds,NA,1,2,NA,This is an,NA,These are both,Eagle,NA,NA,warmup1,NA,NA
2715,NA,Pug,Wed Dec 23 2020 20:37:09 GMT-0500 (EST),NA,NA,37,warmup/great-dane2.png,pug,NA,This is a,No,2,dogs2,Margaret,NA,great dane,yes,Please label the pictures below.,NA,NA,NA,NA,32,NA,Interesting Survey I hope I did it right!,warmup/pug2.png,Dogs,graduated_high_school,NA,NA,English,female,NA,dogs,NA,2,1,NA,This is a,NA,These are both,Great Dane,NA,NA,warmup1,NA,NA
2715,<i>What do you think Speaker A meant? </i>,NA,Wed Dec 23 2020 20:37:09 GMT-0500 (EST),NA,NA,37,NA,NA,NA,NA,No,2,NA,Margaret,1,NA,yes,NA,"<b> Speaker A: ""The Empire State Building is tall.""</b>",NA,NA,NA,32,Buildings,Interesting Survey I hope I did it right!,NA,NA,graduated_high_school,NA,comp_class_warmup,English,female,NA,NA,In the main trials you will be asked to rephrase something a person said. The utterance will contain a word that is <i>relative</i> and your task is to figure out what it is relative to. <br /> <br /> For example: <br />,1,1,The Empire State Building is tall relative to other,NA,NA,NA,NA,"buildings, skyscrapers, houses, constructions (choose one)",NA,comp_class_warmup,NA,NA
2715,What do you think your friend is saying it is small relative to?,NA,Wed Dec 23 2020 20:37:09 GMT-0500 (EST),images/hummingbird.png,images/bird-parade-basic.png,37,NA,NA,critical,NA,No,2,birds,Margaret,NA,NA,yes,Your friend goes ahead of you. You see your friend in the distance:,NA,pred,rescue,hummingbird,32,Birds,Interesting Survey I hope I did it right!,NA,NA,graduated_high_school,small,NA,English,female,15989,NA,You visit your friend who works at an animal shelter and you see the following:,1,NA,It is small relative to other,NA,NA,NA,NA,NA,congruent,custom_main_text1,small,Your friend says: <br/><b>That rescue is a small hummingbird.</b>
2715,What do you think your friend is saying it is big relative to?,NA,Wed Dec 23 2020 20:37:09 GMT-0500 (EST),images/great-dane.png,images/dog-parade-basic2.png,37,NA,NA,critical,NA,No,2,dogs2,Margaret,NA,NA,yes,Your friend goes ahead of you. You see your friend in the distance:,NA,pred,prize-winner,Great Dane,32,Dogs,Interesting Survey I hope I did it right!,NA,NA,graduated_high_school,big,NA,English,female,20264,NA,You and your friend are at a pet show and you see the following:,2,NA,It is big relative to other,NA,NA,NA,NA,NA,congruent,custom_main_text1,big,Your friend says: <br/><b>That prize-winner is a big Great Dane.</b>
2715,NA,Dandelion,Wed Dec 23 2020 20:37:09 GMT-0500 (EST),NA,NA,37,warmup/sunflower2.png,dandelion,NA,This is a,No,2,flowers,Margaret,NA,sunflower,yes,Please label the pictures below.,NA,NA,NA,NA,32,NA,Interesting Survey I hope I did it right!,warmup/dandelion2.png,Plants,graduated_high_school,NA,NA,English,female,NA,flowers,NA,1,1,NA,This is a,NA,These are both,Sunflower,NA,NA,warmup2,NA,NA
2715,NA,Dandelion,Wed Dec 23 2020 20:37:09 GMT-0500 (EST),NA,NA,37,warmup/sunflower2.png,dandelion,NA,This is a,No,2,flowers,Margaret,NA,sunflower,yes,Please label the pictures below.,NA,NA,NA,NA,32,NA,Interesting Survey I hope I did it right!,warmup/dandelion2.png,Flowers,graduated_high_school,NA,NA,English,female,NA,flowers,NA,1,2,NA,This is a,NA,These are both,Sunflower,NA,NA,warmup2,NA,NA
2715,NA,Strip Mall,Wed Dec 23 2020 20:37:09 GMT-0500 (EST),NA,NA,37,warmup/skyscraper2.png,stripmall,NA,This is a,No,2,buildings,Margaret,NA,skyscraper,yes,Please label the pictures below.,NA,NA,NA,NA,32,NA,Interesting Survey I hope I did it right!,warmup/stripmall2.png,Buildings,graduated_high_school,NA,NA,English,female,NA,buildings,NA,2,1,NA,This is a,NA,These are both,Skyscraper,NA,NA,warmup2,NA,NA
2715,NA,Strip Mall,Wed Dec 23 2020 20:37:09 GMT-0500 (EST),NA,NA,37,warmup/skyscraper2.png,stripmall,NA,This is a,No,2,buildings,Margaret,NA,skyscraper,yes,Please label the pictures below.,NA,NA,NA,NA,32,NA,Interesting Survey I hope I did it right!,warmup/stripmall2.png,Buildings,graduated_high_school,NA,NA,English,female,NA,buildings,NA,2,2,NA,This is a,NA,These are both,Skyscraper,NA,NA,warmup2,NA,NA
2715,NA,Strip Mall,Wed Dec 23 2020 20:37:09 GMT-0500 (EST),NA,NA,37,warmup/skyscraper2.png,stripmall,NA,This is a,No,2,buildings,Margaret,NA,skyscraper,yes,Please label the pictures below.,NA,NA,NA,NA,32,NA,Interesting Survey I hope I did it right!,warmup/stripmall2.png,Buildings,graduated_high_school,NA,NA,English,female,NA,buildings,NA,2,3,NA,This is a,NA,These are both,Skyscraper,NA,NA,warmup2,NA,NA
2715,NA,Strip Mall,Wed Dec 23 2020 20:37:09 GMT-0500 (EST),NA,NA,37,warmup/skyscraper2.png,stripmall,NA,This is a,No,2,buildings,Margaret,NA,skyscraper,yes,Please label the pictures below.,NA,NA,NA,NA,32,NA,Interesting Survey I hope I did it right!,warmup/stripmall2.png,Buildings,graduated_high_school,NA,NA,English,female,NA,buildings,NA,2,4,NA,This is a,NA,These are both,Skyscraper,NA,NA,warmup2,NA,NA
2715,NA,Strip Mall,Wed Dec 23 2020 20:37:09 GMT-0500 (EST),NA,NA,37,warmup/skyscraper2.png,stripmall,NA,This is a,No,2,buildings,Margaret,NA,skyscraper,yes,Please label the pictures below.,NA,NA,NA,NA,32,NA,Interesting Survey I hope I did it right!,warmup/stripmall2.png,Buildings,graduated_high_school,NA,NA,English,female,NA,buildings,NA,2,5,NA,This is a,NA,These are both,Skyscraper,NA,NA,warmup2,NA,NA
2715,NA,Strip Mall,Wed Dec 23 2020 20:37:09 GMT-0500 (EST),NA,NA,37,warmup/skyscraper2.png,stripmall,NA,This is a,No,2,buildings,Margaret,NA,skyscraper,yes,Please label the pictures below.,NA,NA,NA,NA,32,NA,Interesting Survey I hope I did it right!,warmup/stripmall2.png,Building,graduated_high_school,NA,NA,English,female,NA,buildings,NA,2,6,NA,This is a,NA,These are both,Skyscraper,NA,NA,warmup2,NA,NA
2715,NA,Strip Mall,Wed Dec 23 2020 20:37:09 GMT-0500 (EST),NA,NA,37,warmup/skyscraper2.png,stripmall,NA,This is a,No,2,buildings,Margaret,NA,skyscraper,yes,Please label the pictures below.,NA,NA,NA,NA,32,NA,Interesting Survey I hope I did it right!,warmup/stripmall2.png,Building,graduated_high_school,NA,NA,English,female,NA,buildings,NA,2,7,NA,This is a,NA,These are both,Skyscraper,NA,NA,warmup2,NA,NA
2715,NA,StripMall,Wed Dec 23 2020 20:37:09 GMT-0500 (EST),NA,NA,37,warmup/skyscraper2.png,stripmall,NA,This is a,No,2,buildings,Margaret,NA,skyscraper,yes,Please label the pictures below.,NA,NA,NA,NA,32,NA,Interesting Survey I hope I did it right!,warmup/stripmall2.png,Building,graduated_high_school,NA,NA,English,female,NA,buildings,NA,2,8,NA,This is a,NA,These are both,Skyscraper,NA,NA,warmup2,NA,NA
2715,What do you think your friend is saying it is big relative to?,NA,Wed Dec 23 2020 20:37:09 GMT-0500 (EST),images/skyscraper-landmark.png,images/buildings-parade-basic.png,37,NA,NA,critical,NA,No,2,buildings,Margaret,NA,NA,yes,Your friend goes ahead of you. You see your friend in the distance:,NA,subj,landmark,skyscraper,32,Building,Interesting Survey I hope I did it right!,NA,NA,graduated_high_school,big,NA,English,female,13976,NA,You visit your friend who lives in another city. You take a walk and you see the following:,1,NA,It is big relative to other,NA,NA,NA,NA,NA,congruent,custom_main_text2,big,Your friend says: <br/><b>That big skyscraper is a landmark.</b>
2715,What do you think your friend is saying it is small relative to?,NA,Wed Dec 23 2020 20:37:09 GMT-0500 (EST),images/dandelion.png,images/flower-parade-basic.png,37,NA,NA,critical,NA,No,2,flowers,Margaret,NA,NA,yes,Your friend goes ahead of you. You see your friend in the distance:,NA,subj,gift,dandelion,32,Flowers,Interesting Survey I hope I did it right!,NA,NA,graduated_high_school,small,NA,English,female,17728,NA,You and your friend are at a garden store and you see the following:,2,NA,It is small relative to other,NA,NA,NA,NA,NA,congruent,custom_main_text2,small,Your friend says: <br/><b>That small dandelion is a gift.</b>
2714,NA,Sunflower,Wed Dec 23 2020 15:35:20 GMT-1000 (HST),NA,NA,37,warmup/dandelion2.png,sunflower,NA,This is a,None,1,flowers,barbara,NA,dandelion,yes,Please label the pictures below.,NA,NA,NA,NA,18,NA,NA,warmup/sunflower2.png,Flowers,graduated_high_school,NA,NA,"English, Japanese",male,NA,flowers,NA,1,1,NA,This is a,NA,These are both,Dandelion,NA,NA,warmup1,NA,NA
2714,NA,Doberman,Wed Dec 23 2020 15:35:20 GMT-1000 (HST),NA,NA,37,warmup/chihuahua2.png,doberman,NA,This is a,None,1,dogs1,barbara,NA,chihuahua,yes,Please label the pictures below.,NA,NA,NA,NA,18,NA,NA,warmup/doberman2.png,Dogs,graduated_high_school,NA,NA,"English, Japanese",male,NA,dogs,NA,2,1,NA,This is a,NA,These are both,Chihuahua,NA,NA,warmup1,NA,NA
2714,<i>What do you think Speaker A meant? </i>,NA,Wed Dec 23 2020 15:35:20 GMT-1000 (HST),NA,NA,37,NA,NA,NA,NA,None,1,NA,barbara,1,NA,yes,NA,"<b> Speaker A: ""The Empire State Building is tall.""</b>",NA,NA,NA,18,Buildings,NA,NA,NA,graduated_high_school,NA,comp_class_warmup,"English, Japanese",male,NA,NA,In the main trials you will be asked to rephrase something a person said. The utterance will contain a word that is <i>relative</i> and your task is to figure out what it is relative to. <br /> <br /> For example: <br />,1,1,The Empire State Building is tall relative to other,NA,NA,NA,NA,"buildings, skyscrapers, houses, constructions (choose one)",NA,comp_class_warmup,NA,NA
2714,What do you think your friend is saying it is big relative to?,NA,Wed Dec 23 2020 15:35:20 GMT-1000 (HST),images/doberman.png,images/dog-parade-basic.png,37,NA,NA,critical,NA,None,1,dogs1,barbara,NA,NA,yes,Your friend goes ahead of you. You see your friend in the distance:,NA,subj,service-animal,doberman,18,Dobermans,NA,NA,NA,graduated_high_school,big,NA,"English, Japanese",male,166805,NA,You and your friend are at an animal training ground and you see the following:,1,NA,It is big relative to other,NA,NA,NA,NA,NA,congruent,custom_main_text1,big,Your friend says: <br/><b>That big doberman is a service-animal.</b>
2714,What do you think your friend is saying it is small relative to?,NA,Wed Dec 23 2020 15:35:20 GMT-1000 (HST),images/dandelion.png,images/flower-parade-basic.png,37,NA,NA,critical,NA,None,1,flowers,barbara,NA,NA,yes,Your friend goes ahead of you. You see your friend in the distance:,NA,subj,gift,dandelion,18,Flowers,NA,NA,NA,graduated_high_school,small,NA,"English, Japanese",male,27354,NA,You and your friend are at a garden store and you see the following:,2,NA,It is small relative to other,NA,NA,NA,NA,NA,congruent,custom_main_text1,small,Your friend says: <br/><b>That small dandelion is a gift.</b>
2714,NA,Redwood,Wed Dec 23 2020 15:35:20 GMT-1000 (HST),NA,NA,37,warmup/bonsai2.png,redwood or sequoia (choose one),NA,This is a,None,1,trees,barbara,NA,bonsai,yes,Please label the pictures below.,NA,NA,NA,NA,18,NA,NA,warmup/redwood2.png,Trees,graduated_high_school,NA,NA,"English, Japanese",male,NA,trees,NA,1,1,NA,This is a,NA,These are both,Bonsai,NA,NA,warmup2,NA,NA
2714,NA,Great Dane,Wed Dec 23 2020 15:35:20 GMT-1000 (HST),NA,NA,37,warmup/pug2.png,great dane,NA,This is a,None,1,dogs2,barbara,NA,pug,yes,Please label the pictures below.,NA,NA,NA,NA,18,NA,NA,warmup/great-dane2.png,Dogs,graduated_high_school,NA,NA,"English, Japanese",male,NA,dogs,NA,2,1,NA,This is a,NA,These are both,Pug,NA,NA,warmup2,NA,NA
2714,What do you think your friend is saying it is small relative to?,NA,Wed Dec 23 2020 15:35:20 GMT-1000 (HST),images/pug.png,images/dog-parade-basic2.png,37,NA,NA,critical,NA,None,1,dogs2,barbara,NA,NA,yes,Your friend goes ahead of you. You see your friend in the distance:,NA,pred,prize-winner,pug,18,Dogs,NA,NA,NA,graduated_high_school,small,NA,"English, Japanese",male,23115,NA,You and your friend are at a pet show and you see the following:,1,NA,It is small relative to other,NA,NA,NA,NA,NA,congruent,custom_main_text2,small,Your friend says: <br/><b>That prize-winner is a small pug.</b>
2714,What do you think your friend is saying it is big relative to?,NA,Wed Dec 23 2020 15:35:20 GMT-1000 (HST),images/redwood_sign.png,images/tree-parade-basic.png,37,NA,NA,critical,NA,None,1,trees,barbara,NA,NA,yes,Your friend goes ahead of you. You see your friend in the distance:,NA,pred,landmark,redwood,18,Trees,NA,NA,NA,graduated_high_school,big,NA,"English, Japanese",male,18949,NA,You and your friend walk to your friend's cabin in a park for the first time. You want to memorize the path and you see the following:,2,NA,It is big relative to other,NA,NA,NA,NA,NA,congruent,custom_main_text2,big,Your friend says: <br/><b>That landmark is a big redwood.</b>
2713,NA,sunflower,Wed Dec 23 2020 19:39:55 GMT-0600 (CST),NA,NA,37,warmup/dandelion2.png,sunflower,NA,This is a,Nope,1,flowers,jennifer,NA,dandelion,yes,Please label the pictures below.,NA,NA,NA,NA,26,NA,NA,warmup/sunflower2.png,flowers,graduated_college,NA,NA,English,female,NA,flowers,NA,1,1,NA,This is a,NA,These are both,dandelion,NA,NA,warmup1,NA,NA
2713,NA,doberman,Wed Dec 23 2020 19:39:55 GMT-0600 (CST),NA,NA,37,warmup/chihuahua2.png,doberman,NA,This is a,Nope,1,dogs1,jennifer,NA,chihuahua,yes,Please label the pictures below.,NA,NA,NA,NA,26,NA,NA,warmup/doberman2.png,Dogs,graduated_college,NA,NA,English,female,NA,dogs,NA,2,1,NA,This is a,NA,These are both,chihuahua,NA,NA,warmup1,NA,NA
2713,<i>What do you think Speaker A meant? </i>,NA,Wed Dec 23 2020 19:39:55 GMT-0600 (CST),NA,NA,37,NA,NA,NA,NA,Nope,1,NA,jennifer,1,NA,yes,NA,"<b> Speaker A: ""The Empire State Building is tall.""</b>",NA,NA,NA,26,buildings,NA,NA,NA,graduated_college,NA,comp_class_warmup,English,female,NA,NA,In the main trials you will be asked to rephrase something a person said. The utterance will contain a word that is <i>relative</i> and your task is to figure out what it is relative to. <br /> <br /> For example: <br />,1,1,The Empire State Building is tall relative to other,NA,NA,NA,NA,"buildings, skyscrapers, houses, constructions (choose one)",NA,comp_class_warmup,NA,NA
2713,What do you think your friend is saying it is small relative to?,NA,Wed Dec 23 2020 19:39:55 GMT-0600 (CST),images/dandelion.png,images/flower-parade-basic.png,37,NA,NA,critical,NA,Nope,1,flowers,jennifer,NA,NA,yes,Your friend goes ahead of you. You see your friend in the distance:,NA,subj,gift,dandelion,26,flowers,NA,NA,NA,graduated_college,small,NA,English,female,25382,NA,You and your friend are at a garden store and you see the following:,1,NA,It is small relative to other,NA,NA,NA,NA,NA,congruent,custom_main_text1,small,Your friend says: <br/><b>That small dandelion is a gift.</b>
2713,What do you think your friend is saying it is big relative to?,NA,Wed Dec 23 2020 19:39:55 GMT-0600 (CST),images/doberman.png,images/dog-parade-basic.png,37,NA,NA,critical,NA,Nope,1,dogs1,jennifer,NA,NA,yes,Your friend goes ahead of you. You see your friend in the distance:,NA,pred,service-animal,doberman,26,dobermans,NA,NA,NA,graduated_college,big,NA,English,female,17095,NA,You and your friend are at an animal training ground and you see the following:,2,NA,It is big relative to other,NA,NA,NA,NA,NA,congruent,custom_main_text1,big,Your friend says: <br/><b>That service-animal is a big doberman.</b>
2713,NA,pug,Wed Dec 23 2020 19:39:55 GMT-0600 (CST),NA,NA,37,warmup/great-dane2.png,pug,NA,This is a,Nope,1,dogs2,jennifer,NA,great dane,yes,Please label the pictures below.,NA,NA,NA,NA,26,NA,NA,warmup/pug2.png,dogs,graduated_college,NA,NA,English,female,NA,dogs,NA,1,1,NA,This is a,NA,These are both,great dane,NA,NA,warmup2,NA,NA
2713,NA,Tuna,Wed Dec 23 2020 19:39:55 GMT-0600 (CST),NA,NA,37,warmup/clownfish2.png,tuna,NA,This is a,Nope,1,fish,jennifer,NA,clownfish,yes,Please label the pictures below.,NA,NA,NA,NA,26,NA,NA,warmup/tuna2.png,Fish,graduated_college,NA,NA,English,female,NA,fish,NA,2,1,NA,This is a,NA,These are both,Clownfish,NA,NA,warmup2,NA,NA
2713,What do you think your friend is saying it is big relative to?,NA,Wed Dec 23 2020 19:39:55 GMT-0600 (CST),images/tuna_net.png,images/fish-parade-basic.png,37,NA,NA,critical,NA,Nope,1,fish,jennifer,NA,NA,yes,Your friend goes ahead of you. You see your friend in the distance:,NA,subj,rescue,tuna,26,Tuna fish,NA,NA,NA,graduated_college,big,NA,English,female,19209,NA,You visit your friend who works as a marine biologist and you see the following:,1,NA,It is big relative to other,NA,NA,NA,NA,NA,congruent,custom_main_text2,big,Your friend says: <br/><b>That big tuna is a rescue.</b>
2713,What do you think your friend is saying it is small relative to?,NA,Wed Dec 23 2020 19:39:55 GMT-0600 (CST),images/pug.png,images/dog-parade-basic2.png,37,NA,NA,critical,NA,Nope,1,dogs2,jennifer,NA,NA,yes,Your friend goes ahead of you. You see your friend in the distance:,NA,pred,prize-winner,pug,26,Pugs,NA,NA,NA,graduated_college,small,NA,English,female,11227,NA,You and your friend are at a pet show and you see the following:,2,NA,It is small relative to other,NA,NA,NA,NA,NA,congruent,custom_main_text2,small,Your friend says: <br/><b>That prize-winner is a small pug.</b>
2712,NA,redwood,Wed Dec 23 2020 17:41:01 GMT-0800 (Pacific Standard Time),NA,NA,37,warmup/bonsai2.png,redwood or sequoia (choose one),NA,This is a,No,1,trees,barbara,NA,bonsai,yes,Please label the pictures below.,NA,NA,NA,NA,18,NA,NA,warmup/redwood2.png,trees,some_college,NA,NA,English,male,NA,trees,NA,1,1,NA,This is a,0.75,These are both,bonsai,NA,NA,warmup1,NA,NA
2712,NA,doberman,Wed Dec 23 2020 17:41:01 GMT-0800 (Pacific Standard Time),NA,NA,37,warmup/chihuahua2.png,doberman,NA,This is a,No,1,dogs1,barbara,NA,chihuahua,yes,Please label the pictures below.,NA,NA,NA,NA,18,NA,NA,warmup/doberman2.png,dogs,some_college,NA,NA,English,male,NA,dogs,NA,2,1,NA,This is a,0.75,These are both,chihuahua,NA,NA,warmup1,NA,NA
2712,<i>What do you think Speaker A meant? </i>,NA,Wed Dec 23 2020 17:41:01 GMT-0800 (Pacific Standard Time),NA,NA,37,NA,NA,NA,NA,No,1,NA,barbara,1,NA,yes,NA,"<b> Speaker A: ""The Empire State Building is tall.""</b>",NA,NA,NA,18,buildings,NA,NA,NA,some_college,NA,comp_class_warmup,English,male,NA,NA,In the main trials you will be asked to rephrase something a person said. The utterance will contain a word that is <i>relative</i> and your task is to figure out what it is relative to. <br /> <br /> For example: <br />,1,1,The Empire State Building is tall relative to other,NA,0.75,NA,NA,"buildings, skyscrapers, houses, constructions (choose one)",NA,comp_class_warmup,NA,NA
2712,What do you think your friend is saying it is small relative to?,NA,Wed Dec 23 2020 17:41:01 GMT-0800 (Pacific Standard Time),images/bonsai_stick.png,images/tree-parade-basic.png,37,NA,NA,critical,NA,No,1,trees,barbara,NA,NA,yes,Your friend goes ahead of you. You see your friend in the distance:,NA,subj,landmark,bonsai,18,trees,NA,NA,NA,some_college,small,NA,English,male,13681,NA,You and your friend walk to your friend's cabin in a park for the first time. You want to memorize the path and you see the following:,1,NA,It is small relative to other,NA,0.75,NA,NA,NA,congruent,custom_main_text1,small,Your friend says: <br/><b>That small bonsai is a landmark.</b>
2712,What do you think your friend is saying it is big relative to?,NA,Wed Dec 23 2020 17:41:01 GMT-0800 (Pacific Standard Time),images/doberman.png,images/dog-parade-basic.png,37,NA,NA,critical,NA,No,1,dogs1,barbara,NA,NA,yes,Your friend goes ahead of you. You see your friend in the distance:,NA,pred,service-animal,doberman,18,dogs,NA,NA,NA,some_college,big,NA,English,male,8535,NA,You and your friend are at an animal training ground and you see the following:,2,NA,It is big relative to other,NA,0.75,NA,NA,NA,congruent,custom_main_text1,big,Your friend says: <br/><b>That service-animal is a big doberman.</b>
2712,NA,doberman,Wed Dec 23 2020 17:41:01 GMT-0800 (Pacific Standard Time),NA,NA,37,warmup/pug2.png,great dane,NA,This is a,No,1,dogs2,barbara,NA,pug,yes,Please label the pictures below.,NA,NA,NA,NA,18,NA,NA,warmup/great-dane2.png,dogs,some_college,NA,NA,English,male,NA,dogs,NA,1,1,NA,This is a,0.75,These are both,pug,NA,NA,warmup2,NA,NA
2712,NA,great dane,Wed Dec 23 2020 17:41:01 GMT-0800 (Pacific Standard Time),NA,NA,37,warmup/pug2.png,great dane,NA,This is a,No,1,dogs2,barbara,NA,pug,yes,Please label the pictures below.,NA,NA,NA,NA,18,NA,NA,warmup/great-dane2.png,dogs,some_college,NA,NA,English,male,NA,dogs,NA,1,2,NA,This is a,0.75,These are both,pug,NA,NA,warmup2,NA,NA
2712,NA,dandelion,Wed Dec 23 2020 17:41:01 GMT-0800 (Pacific Standard Time),NA,NA,37,warmup/sunflower2.png,dandelion,NA,This is a,No,1,flowers,barbara,NA,sunflower,yes,Please label the pictures below.,NA,NA,NA,NA,18,NA,NA,warmup/dandelion2.png,flowers,some_college,NA,NA,English,male,NA,flowers,NA,2,1,NA,This is a,0.75,These are both,sunflower,NA,NA,warmup2,NA,NA
2712,What do you think your friend is saying it is small relative to?,NA,Wed Dec 23 2020 17:41:01 GMT-0800 (Pacific Standard Time),images/dandelion.png,images/flower-parade-basic.png,37,NA,NA,critical,NA,No,1,flowers,barbara,NA,NA,yes,Your friend goes ahead of you. You see your friend in the distance:,NA,pred,gift,dandelion,18,flowers,NA,NA,NA,some_college,small,NA,English,male,5991,NA,You and your friend are at a garden store and you see the following:,1,NA,It is small relative to other,NA,0.75,NA,NA,NA,congruent,custom_main_text2,small,Your friend says: <br/><b>That gift is a small dandelion.</b>
2712,What do you think your friend is saying it is big relative to?,NA,Wed Dec 23 2020 17:41:01 GMT-0800 (Pacific Standard Time),images/great-dane.png,images/dog-parade-basic2.png,37,NA,NA,critical,NA,No,1,dogs2,barbara,NA,NA,yes,Your friend goes ahead of you. You see your friend in the distance:,NA,subj,prize-winner,Great Dane,18,dogs,NA,NA,NA,some_college,big,NA,English,male,4146,NA,You and your friend are at a pet show and you see the following:,2,NA,It is big relative to other,NA,0.75,NA,NA,NA,congruent,custom_main_text2,big,Your friend says: <br/><b>That big Great Dane is a prize-winner.</b>
2711,NA,dandelion,Wed Dec 23 2020 20:39:53 GMT-0500 (Eastern Standard Time),NA,NA,37,warmup/sunflower2.png,dandelion,NA,This is a,No,1,flowers,elizabeth,NA,sunflower,yes,Please label the pictures below.,NA,NA,NA,NA,19,NA,NA,warmup/dandelion2.png,flowers,some_college,NA,NA,"English, Spanish",male,NA,flowers,NA,1,1,NA,This is a,0.75,These are both,sunflower,NA,NA,warmup1,NA,NA
2711,NA,pug,Wed Dec 23 2020 20:39:53 GMT-0500 (Eastern Standard Time),NA,NA,37,warmup/great-dane2.png,pug,NA,This is a,No,1,dogs2,elizabeth,NA,great dane,yes,Please label the pictures below.,NA,NA,NA,NA,19,NA,NA,warmup/pug2.png,dogs,some_college,NA,NA,"English, Spanish",male,NA,dogs,NA,2,1,NA,This is a,0.75,These are both,Great Dane,NA,NA,warmup1,NA,NA
2711,<i>What do you think Speaker A meant? </i>,NA,Wed Dec 23 2020 20:39:53 GMT-0500 (Eastern Standard Time),NA,NA,37,NA,NA,NA,NA,No,1,NA,elizabeth,1,NA,yes,NA,"<b> Speaker A: ""The Empire State Building is tall.""</b>",NA,NA,NA,19,buildings,NA,NA,NA,some_college,NA,comp_class_warmup,"English, Spanish",male,NA,NA,In the main trials you will be asked to rephrase something a person said. The utterance will contain a word that is <i>relative</i> and your task is to figure out what it is relative to. <br /> <br /> For example: <br />,1,1,The Empire State Building is tall relative to other,NA,0.75,NA,NA,"buildings, skyscrapers, houses, constructions (choose one)",NA,comp_class_warmup,NA,NA
2711,What do you think your friend is saying it is big relative to?,NA,Wed Dec 23 2020 20:39:53 GMT-0500 (Eastern Standard Time),images/great-dane.png,images/dog-parade-basic2.png,37,NA,NA,critical,NA,No,1,dogs2,elizabeth,NA,NA,yes,Your friend goes ahead of you. You see your friend in the distance:,NA,pred,prize-winner,Great Dane,19,Great Danes,NA,NA,NA,some_college,big,NA,"English, Spanish",male,18561,NA,You and your friend are at a pet show and you see the following:,1,NA,It is big relative to other,NA,0.75,NA,NA,NA,congruent,custom_main_text1,big,Your friend says: <br/><b>That prize-winner is a big Great Dane.</b>
2711,What do you think your friend is saying it is big relative to?,NA,Wed Dec 23 2020 20:39:53 GMT-0500 (Eastern Standard Time),images/sunflower.png,images/flower-parade-basic.png,37,NA,NA,critical,NA,No,1,flowers,elizabeth,NA,NA,yes,Your friend goes ahead of you. You see your friend in the distance:,NA,subj,gift,sunflower,19,sunflowers,NA,NA,NA,some_college,big,NA,"English, Spanish",male,19402,NA,You and your friend are at a garden store and you see the following:,2,NA,It is big relative to other,NA,0.75,NA,NA,NA,congruent,custom_main_text1,big,Your friend says: <br/><b>That big sunflower is a gift.</b>
2711,NA,doberman,Wed Dec 23 2020 20:39:53 GMT-0500 (Eastern Standard Time),NA,NA,37,warmup/chihuahua2.png,doberman,NA,This is a,No,1,dogs1,elizabeth,NA,chihuahua,yes,Please label the pictures below.,NA,NA,NA,NA,19,NA,NA,warmup/doberman2.png,dogs,some_college,NA,NA,"English, Spanish",male,NA,dogs,NA,1,1,NA,This is a,0.75,These are both,chihuahua,NA,NA,warmup2,NA,NA
2711,NA,bonsai,Wed Dec 23 2020 20:39:53 GMT-0500 (Eastern Standard Time),NA,NA,37,warmup/redwood2.png,bonsai,NA,This is a,No,1,trees,elizabeth,NA,redwood or sequoia (choose one),yes,Please label the pictures below.,NA,NA,NA,NA,19,NA,NA,warmup/bonsai2.png,trees,some_college,NA,NA,"English, Spanish",male,NA,trees,NA,2,1,NA,This is a,0.75,These are both,redwood,NA,NA,warmup2,NA,NA
2711,What do you think your friend is saying it is small relative to?,NA,Wed Dec 23 2020 20:39:53 GMT-0500 (Eastern Standard Time),images/bonsai_stick.png,images/tree-parade-basic.png,37,NA,NA,critical,NA,No,1,trees,elizabeth,NA,NA,yes,Your friend goes ahead of you. You see your friend in the distance:,NA,pred,landmark,bonsai,19,landmarks,NA,NA,NA,some_college,small,NA,"English, Spanish",male,15632,NA,You and your friend walk to your friend's cabin in a park for the first time. You want to memorize the path and you see the following:,1,NA,It is small relative to other,NA,0.75,NA,NA,NA,congruent,custom_main_text2,small,Your friend says: <br/><b>That landmark is a small bonsai.</b>
2711,What do you think your friend is saying it is small relative to?,NA,Wed Dec 23 2020 20:39:53 GMT-0500 (Eastern Standard Time),images/chihuahua.png,images/dog-parade-basic.png,37,NA,NA,critical,NA,No,1,dogs1,elizabeth,NA,NA,yes,Your friend goes ahead of you. You see your friend in the distance:,NA,subj,service-animal,chihuahua,19,chihuahuas,NA,NA,NA,some_college,small,NA,"English, Spanish",male,7092,NA,You and your friend are at an animal training ground and you see the following:,2,NA,It is small relative to other,NA,0.75,NA,NA,NA,congruent,custom_main_text2,small,Your friend says: <br/><b>That small chihuahua is a service-animal.</b>
2710,NA,clownfish,Wed Dec 23 2020 20:38:17 GMT-0500 (Eastern Standard Time),NA,NA,37,warmup/tuna2.png,clownfish,NA,This is a,no,1,fish,elizabeth,NA,tuna,yes,Please label the pictures below.,NA,NA,NA,NA,47,NA,NA,warmup/clownfish2.png,fish,some_college,NA,NA,English,female,NA,fish,NA,1,1,NA,This is a,1,These are both,tuna,NA,NA,warmup1,NA,NA
2710,NA,pug,Wed Dec 23 2020 20:38:17 GMT-0500 (Eastern Standard Time),NA,NA,37,warmup/great-dane2.png,pug,NA,This is a,no,1,dogs2,elizabeth,NA,great dane,yes,Please label the pictures below.,NA,NA,NA,NA,47,NA,NA,warmup/pug2.png,dogs,some_college,NA,NA,English,female,NA,dogs,NA,2,1,NA,This is a,1,These are both,great dane,NA,NA,warmup1,NA,NA
2710,<i>What do you think Speaker A meant? </i>,NA,Wed Dec 23 2020 20:38:17 GMT-0500 (Eastern Standard Time),NA,NA,37,NA,NA,NA,NA,no,1,NA,elizabeth,1,NA,yes,NA,"<b> Speaker A: ""The Empire State Building is tall.""</b>",NA,NA,NA,47,buildings,NA,NA,NA,some_college,NA,comp_class_warmup,English,female,NA,NA,In the main trials you will be asked to rephrase something a person said. The utterance will contain a word that is <i>relative</i> and your task is to figure out what it is relative to. <br /> <br /> For example: <br />,1,1,The Empire State Building is tall relative to other,NA,1,NA,NA,"buildings, skyscrapers, houses, constructions (choose one)",NA,comp_class_warmup,NA,NA
2710,What do you think your friend is saying it is small relative to?,NA,Wed Dec 23 2020 20:38:17 GMT-0500 (Eastern Standard Time),images/clownfish_net.png,images/fish-parade-basic.png,37,NA,NA,critical,NA,no,1,fish,elizabeth,NA,NA,yes,Your friend goes ahead of you. You see your friend in the distance:,NA,pred,rescue,clownfish,47,fish,NA,NA,NA,some_college,small,NA,English,female,21514,NA,You visit your friend who works as a marine biologist and you see the following:,1,NA,It is small relative to other,NA,1,NA,NA,NA,congruent,custom_main_text1,small,Your friend says: <br/><b>That rescue is a small clownfish.</b>
2710,What do you think your friend is saying it is big relative to?,NA,Wed Dec 23 2020 20:38:17 GMT-0500 (Eastern Standard Time),images/great-dane-gift.png,images/dog-parade-basic2-gift.png,37,NA,NA,critical,NA,no,1,dogs2,elizabeth,NA,NA,yes,Your friend goes ahead of you. You see your friend in the distance:,NA,pred,gift,Great Dane,47,Great Danes,NA,NA,NA,some_college,big,NA,English,female,32804,NA,You and your friend are at a pet store and you see the following:,2,NA,It is big relative to other,NA,1,NA,NA,NA,congruent,custom_main_text1,big,Your friend says: <br/><b>That gift is a big Great Dane.</b>
2710,NA,skyscraper,Wed Dec 23 2020 20:38:17 GMT-0500 (Eastern Standard Time),NA,NA,37,warmup/stripmall2.png,skyscraper,NA,This is a,no,1,buildings,elizabeth,NA,stripmall,yes,Please label the pictures below.,NA,NA,NA,NA,47,NA,NA,warmup/skyscraper2.png,buildings,some_college,NA,NA,English,female,NA,buildings,NA,1,1,NA,This is a,1,These are both,strip mall,NA,NA,warmup2,NA,NA
2710,NA,skyscraper,Wed Dec 23 2020 20:38:17 GMT-0500 (Eastern Standard Time),NA,NA,37,warmup/stripmall2.png,skyscraper,NA,This is a,no,1,buildings,elizabeth,NA,stripmall,yes,Please label the pictures below.,NA,NA,NA,NA,47,NA,NA,warmup/skyscraper2.png,buildings,some_college,NA,NA,English,female,NA,buildings,NA,1,2,NA,This is a,1,These are both,strip mall,NA,NA,warmup2,NA,NA
2710,NA,skyscraper,Wed Dec 23 2020 20:38:17 GMT-0500 (Eastern Standard Time),NA,NA,37,warmup/stripmall2.png,skyscraper,NA,This is a,no,1,buildings,elizabeth,NA,stripmall,yes,Please label the pictures below.,NA,NA,NA,NA,47,NA,NA,warmup/skyscraper2.png,buildings,some_college,NA,NA,English,female,NA,buildings,NA,1,3,NA,This is a,1,These are both,stripmall,NA,NA,warmup2,NA,NA
2710,NA,doberman,Wed Dec 23 2020 20:38:17 GMT-0500 (Eastern Standard Time),NA,NA,37,warmup/chihuahua2.png,doberman,NA,This is a,no,1,dogs1,elizabeth,NA,chihuahua,yes,Please label the pictures below.,NA,NA,NA,NA,47,NA,NA,warmup/doberman2.png,dogs,some_college,NA,NA,English,female,NA,dogs,NA,2,1,NA,This is a,1,These are both,chihauhau,NA,NA,warmup2,NA,NA
2710,NA,doberman,Wed Dec 23 2020 20:38:17 GMT-0500 (Eastern Standard Time),NA,NA,37,warmup/chihuahua2.png,doberman,NA,This is a,no,1,dogs1,elizabeth,NA,chihuahua,yes,Please label the pictures below.,NA,NA,NA,NA,47,NA,NA,warmup/doberman2.png,dogs,some_college,NA,NA,English,female,NA,dogs,NA,2,2,NA,This is a,1,These are both,chihuahua,NA,NA,warmup2,NA,NA
2710,What do you think your friend is saying it is small relative to?,NA,Wed Dec 23 2020 20:38:17 GMT-0500 (Eastern Standard Time),images/stripmall-landmark.png,images/buildings-parade-basic.png,37,NA,NA,critical,NA,no,1,buildings,elizabeth,NA,NA,yes,Your friend goes ahead of you. You see your friend in the distance:,NA,subj,landmark,stripmall,47,buildings,NA,NA,NA,some_college,small,NA,English,female,31246,NA,You visit your friend who lives in another city. You take a walk and you see the following:,1,NA,It is small relative to other,NA,1,NA,NA,NA,congruent,custom_main_text2,small,Your friend says: <br/><b>That small stripmall is a landmark.</b>
2710,What do you think your friend is saying it is big relative to?,NA,Wed Dec 23 2020 20:38:17 GMT-0500 (Eastern Standard Time),images/doberman.png,images/dog-parade-basic.png,37,NA,NA,critical,NA,no,1,dogs1,elizabeth,NA,NA,yes,Your friend goes ahead of you. You see your friend in the distance:,NA,subj,service-animal,doberman,47,service animals,NA,NA,NA,some_college,big,NA,English,female,20981,NA,You and your friend are at an animal training ground and you see the following:,2,NA,It is big relative to other,NA,1,NA,NA,NA,congruent,custom_main_text2,big,Your friend says: <br/><b>That big doberman is a service-animal.</b>
2709,NA,eagle,Wed Dec 23 2020 20:37:47 GMT-0500 (EST),NA,NA,37,warmup/hummingbird2.png,eagle,NA,This is a,no,2,birds,jessica,NA,hummingbird,yes,Please label the pictures below.,NA,NA,NA,NA,57,NA,NA,warmup/eagle2.png,birds,graduated_high_school,NA,NA,English,male,NA,birds,NA,1,1,NA,This is an,NA,These are both,hummingbird,NA,NA,warmup1,NA,NA
2709,NA,pug,Wed Dec 23 2020 20:37:47 GMT-0500 (EST),NA,NA,37,warmup/great-dane2.png,pug,NA,This is a,no,2,dogs2,jessica,NA,great dane,yes,Please label the pictures below.,NA,NA,NA,NA,57,NA,NA,warmup/pug2.png,dogs,graduated_high_school,NA,NA,English,male,NA,dogs,NA,2,1,NA,This is a,NA,These are both,Great Dane,NA,NA,warmup1,NA,NA
2709,<i>What do you think Speaker A meant? </i>,NA,Wed Dec 23 2020 20:37:47 GMT-0500 (EST),NA,NA,37,NA,NA,NA,NA,no,2,NA,jessica,1,NA,yes,NA,"<b> Speaker A: ""The Empire State Building is tall.""</b>",NA,NA,NA,57,buildings,NA,NA,NA,graduated_high_school,NA,comp_class_warmup,English,male,NA,NA,In the main trials you will be asked to rephrase something a person said. The utterance will contain a word that is <i>relative</i> and your task is to figure out what it is relative to. <br /> <br /> For example: <br />,1,1,The Empire State Building is tall relative to other,NA,NA,NA,NA,"buildings, skyscrapers, houses, constructions (choose one)",NA,comp_class_warmup,NA,NA
2709,What do you think your friend is saying it is small relative to?,NA,Wed Dec 23 2020 20:37:47 GMT-0500 (EST),images/pug.png,images/dog-parade-basic2.png,37,NA,NA,critical,NA,no,2,dogs2,jessica,NA,NA,yes,Your friend goes ahead of you. You see your friend in the distance:,NA,pred,prize-winner,pug,57,dogs,NA,NA,NA,graduated_high_school,small,NA,English,male,20242,NA,You and your friend are at a pet show and you see the following:,1,NA,It is small relative to other,NA,NA,NA,NA,NA,congruent,custom_main_text1,small,Your friend says: <br/><b>That prize-winner is a small pug.</b>
2709,What do you think your friend is saying it is big relative to?,NA,Wed Dec 23 2020 20:37:47 GMT-0500 (EST),images/eagle.png,images/bird-parade-basic.png,37,NA,NA,critical,NA,no,2,birds,jessica,NA,NA,yes,Your friend goes ahead of you. You see your friend in the distance:,NA,pred,rescue,eagle,57,birds,NA,NA,NA,graduated_high_school,big,NA,English,male,19160,NA,You visit your friend who works at an animal shelter and you see the following:,2,NA,It is big relative to other,NA,NA,NA,NA,NA,congruent,custom_main_text1,big,Your friend says: <br/><b>That rescue is a big eagle.</b>
2709,NA,strip mall,Wed Dec 23 2020 20:37:47 GMT-0500 (EST),NA,NA,37,warmup/skyscraper2.png,stripmall,NA,This is a,no,2,buildings,jessica,NA,skyscraper,yes,Please label the pictures below.,NA,NA,NA,NA,57,NA,NA,warmup/stripmall2.png,buildings,graduated_high_school,NA,NA,English,male,NA,buildings,NA,1,1,NA,This is a,NA,These are both,skyscraper,NA,NA,warmup2,NA,NA
2709,NA,stripmall,Wed Dec 23 2020 20:37:47 GMT-0500 (EST),NA,NA,37,warmup/skyscraper2.png,stripmall,NA,This is a,no,2,buildings,jessica,NA,skyscraper,yes,Please label the pictures below.,NA,NA,NA,NA,57,NA,NA,warmup/stripmall2.png,buildings,graduated_high_school,NA,NA,English,male,NA,buildings,NA,1,2,NA,This is a,NA,These are both,skyscraper,NA,NA,warmup2,NA,NA
2709,NA,doberman,Wed Dec 23 2020 20:37:47 GMT-0500 (EST),NA,NA,37,warmup/chihuahua2.png,doberman,NA,This is a,no,2,dogs1,jessica,NA,chihuahua,yes,Please label the pictures below.,NA,NA,NA,NA,57,NA,NA,warmup/doberman2.png,dogs,graduated_high_school,NA,NA,English,male,NA,dogs,NA,2,1,NA,This is a,NA,These are both,chihuahua,NA,NA,warmup2,NA,NA
2709,What do you think your friend is saying it is small relative to?,NA,Wed Dec 23 2020 20:37:47 GMT-0500 (EST),images/stripmall-landmark.png,images/buildings-parade-basic.png,37,NA,NA,critical,NA,no,2,buildings,jessica,NA,NA,yes,Your friend goes ahead of you. You see your friend in the distance:,NA,subj,landmark,stripmall,57,buildings,NA,NA,NA,graduated_high_school,small,NA,English,male,15658,NA,You visit your friend who lives in another city. You take a walk and you see the following:,1,NA,It is small relative to other,NA,NA,NA,NA,NA,congruent,custom_main_text2,small,Your friend says: <br/><b>That small stripmall is a landmark.</b>
2709,What do you think your friend is saying it is big relative to?,NA,Wed Dec 23 2020 20:37:47 GMT-0500 (EST),images/doberman.png,images/dog-parade-basic.png,37,NA,NA,critical,NA,no,2,dogs1,jessica,NA,NA,yes,Your friend goes ahead of you. You see your friend in the distance:,NA,subj,service-animal,doberman,57,dogs,NA,NA,NA,graduated_high_school,big,NA,English,male,9904,NA,You and your friend are at an animal training ground and you see the following:,2,NA,It is big relative to other,NA,NA,NA,NA,NA,congruent,custom_main_text2,big,Your friend says: <br/><b>That big doberman is a service-animal.</b>
2708,NA,clownfish,Wed Dec 23 2020 20:35:07 GMT-0500 (Eastern Standard Time),NA,NA,37,warmup/tuna2.png,clownfish,NA,This is a,NA,2,fish,jennifer,NA,tuna,yes,Please label the pictures below.,NA,NA,NA,NA,22,NA,NA,warmup/clownfish2.png,fish,graduated_college,NA,NA,English,male,NA,fish,NA,1,1,NA,This is a,0.2,These are both,tuna,NA,NA,warmup1,NA,NA
2708,NA,chihuahua,Wed Dec 23 2020 20:35:07 GMT-0500 (Eastern Standard Time),NA,NA,37,warmup/doberman2.png,chihuahua,NA,This is a,NA,2,dogs1,jennifer,NA,doberman,yes,Please label the pictures below.,NA,NA,NA,NA,22,NA,NA,warmup/chihuahua2.png,dogs,graduated_college,NA,NA,English,male,NA,dogs,NA,2,1,NA,This is a,0.2,These are both,doberman,NA,NA,warmup1,NA,NA
2708,<i>What do you think Speaker A meant? </i>,NA,Wed Dec 23 2020 20:35:07 GMT-0500 (Eastern Standard Time),NA,NA,37,NA,NA,NA,NA,NA,2,NA,jennifer,1,NA,yes,NA,"<b> Speaker A: ""The Empire State Building is tall.""</b>",NA,NA,NA,22,buildings,NA,NA,NA,graduated_college,NA,comp_class_warmup,English,male,NA,NA,In the main trials you will be asked to rephrase something a person said. The utterance will contain a word that is <i>relative</i> and your task is to figure out what it is relative to. <br /> <br /> For example: <br />,1,1,The Empire State Building is tall relative to other,NA,0.2,NA,NA,"buildings, skyscrapers, houses, constructions (choose one)",NA,comp_class_warmup,NA,NA
2708,What do you think your friend is saying it is big relative to?,NA,Wed Dec 23 2020 20:35:07 GMT-0500 (Eastern Standard Time),images/doberman.png,images/dog-parade-basic.png,37,NA,NA,critical,NA,NA,2,dogs1,jennifer,NA,NA,yes,Your friend goes ahead of you. You see your friend in the distance:,NA,pred,service-animal,doberman,22,dobermans,NA,NA,NA,graduated_college,big,NA,English,male,59406,NA,You and your friend are at an animal training ground and you see the following:,1,NA,It is big relative to other,NA,0.2,NA,NA,NA,congruent,custom_main_text1,big,Your friend says: <br/><b>That service-animal is a big doberman.</b>
2708,What do you think your friend is saying it is small relative to?,NA,Wed Dec 23 2020 20:35:07 GMT-0500 (Eastern Standard Time),images/clownfish_net.png,images/fish-parade-basic.png,37,NA,NA,critical,NA,NA,2,fish,jennifer,NA,NA,yes,Your friend goes ahead of you. You see your friend in the distance:,NA,pred,rescue,clownfish,22,fish,NA,NA,NA,graduated_college,small,NA,English,male,23660,NA,You visit your friend who works as a marine biologist and you see the following:,2,NA,It is small relative to other,NA,0.2,NA,NA,NA,congruent,custom_main_text1,small,Your friend says: <br/><b>That rescue is a small clownfish.</b>
2708,NA,great dane,Wed Dec 23 2020 20:35:07 GMT-0500 (Eastern Standard Time),NA,NA,37,warmup/pug2.png,great dane,NA,This is a,NA,2,dogs2,jennifer,NA,pug,yes,Please label the pictures below.,NA,NA,NA,NA,22,NA,NA,warmup/great-dane2.png,dogs,graduated_college,NA,NA,English,male,NA,dogs,NA,1,1,NA,This is a,0.2,These are both,pug,NA,NA,warmup2,NA,NA
2708,NA,sunflower,Wed Dec 23 2020 20:35:07 GMT-0500 (Eastern Standard Time),NA,NA,37,warmup/dandelion2.png,sunflower,NA,This is a,NA,2,flowers,jennifer,NA,dandelion,yes,Please label the pictures below.,NA,NA,NA,NA,22,NA,NA,warmup/sunflower2.png,flowers,graduated_college,NA,NA,English,male,NA,flowers,NA,2,1,NA,This is a,0.2,These are both,dandelion,NA,NA,warmup2,NA,NA
2708,What do you think your friend is saying it is small relative to?,NA,Wed Dec 23 2020 20:35:07 GMT-0500 (Eastern Standard Time),images/dandelion-landmark.png,images/flower-parade-basic-landmark.png,37,NA,NA,critical,NA,NA,2,flowers,jennifer,NA,NA,yes,Your friend goes ahead of you. You see your friend in the distance:,NA,subj,landmark,dandelion,22,flowers,NA,NA,NA,graduated_college,small,NA,English,male,30239,NA,You and your friend walk to a cabin you are renting for the weekend for the first time. You go along the path and you see the following:,1,NA,It is small relative to other,NA,0.2,NA,NA,NA,congruent,custom_main_text2,small,Your friend says: <br/><b>That small dandelion is a landmark.</b>
2708,What do you think your friend is saying it is big relative to?,NA,Wed Dec 23 2020 20:35:07 GMT-0500 (Eastern Standard Time),images/great-dane-gift.png,images/dog-parade-basic2-gift.png,37,NA,NA,critical,NA,NA,2,dogs2,jennifer,NA,NA,yes,Your friend goes ahead of you. You see your friend in the distance:,NA,subj,gift,Great Dane,22,dogs,NA,NA,NA,graduated_college,big,NA,English,male,26336,NA,You and your friend are at a pet store and you see the following:,2,NA,It is big relative to other,NA,0.2,NA,NA,NA,congruent,custom_main_text2,big,Your friend says: <br/><b>That big Great Dane is a gift.</b>
2707,NA,Great Dane,Wed Dec 23 2020 17:39:02 GMT-0800 (Pacific Standard Time),NA,NA,37,warmup/pug2.png,great dane,NA,This is a,NA,1,dogs2,Margaret,NA,pug,NA,Please label the pictures below.,NA,NA,NA,NA,NA,NA,NA,warmup/great-dane2.png,dogs,NA,NA,NA,NA,NA,NA,dogs,NA,1,1,NA,This is a,0.74,These are both,pug,NA,NA,warmup1,NA,NA
2707,NA,chihuahua,Wed Dec 23 2020 17:39:02 GMT-0800 (Pacific Standard Time),NA,NA,37,warmup/doberman2.png,chihuahua,NA,This is a,NA,1,dogs1,Margaret,NA,doberman,NA,Please label the pictures below.,NA,NA,NA,NA,NA,NA,NA,warmup/chihuahua2.png,dogs,NA,NA,NA,NA,NA,NA,dogs,NA,2,1,NA,This is a,0.74,These are both,doberman,NA,NA,warmup1,NA,NA
2707,<i>What do you think Speaker A meant? </i>,NA,Wed Dec 23 2020 17:39:02 GMT-0800 (Pacific Standard Time),NA,NA,37,NA,NA,NA,NA,NA,1,NA,Margaret,1,NA,NA,NA,"<b> Speaker A: ""The Empire State Building is tall.""</b>",NA,NA,NA,NA,buildings,NA,NA,NA,NA,NA,comp_class_warmup,NA,NA,NA,NA,In the main trials you will be asked to rephrase something a person said. The utterance will contain a word that is <i>relative</i> and your task is to figure out what it is relative to. <br /> <br /> For example: <br />,1,1,The Empire State Building is tall relative to other,NA,0.74,NA,NA,"buildings, skyscrapers, houses, constructions (choose one)",NA,comp_class_warmup,NA,NA
2707,What do you think your friend is saying it is small relative to?,NA,Wed Dec 23 2020 17:39:02 GMT-0800 (Pacific Standard Time),images/chihuahua.png,images/dog-parade-basic.png,37,NA,NA,critical,NA,NA,1,dogs1,Margaret,NA,NA,NA,Your friend goes ahead of you. You see your friend in the distance:,NA,pred,service-animal,chihuahua,NA,dogs,NA,NA,NA,NA,small,NA,NA,NA,12123,NA,You and your friend are at an animal training ground and you see the following:,1,NA,It is small relative to other,NA,0.74,NA,NA,NA,congruent,custom_main_text1,small,Your friend says: <br/><b>That service-animal is a small chihuahua.</b>
2707,What do you think your friend is saying it is big relative to?,NA,Wed Dec 23 2020 17:39:02 GMT-0800 (Pacific Standard Time),images/great-dane-gift.png,images/dog-parade-basic2-gift.png,37,NA,NA,critical,NA,NA,1,dogs2,Margaret,NA,NA,NA,Your friend goes ahead of you. You see your friend in the distance:,NA,pred,gift,Great Dane,NA,chihuahuas and pugs,NA,NA,NA,NA,big,NA,NA,NA,21728,NA,You and your friend are at a pet store and you see the following:,2,NA,It is big relative to other,NA,0.74,NA,NA,NA,congruent,custom_main_text1,big,Your friend says: <br/><b>That gift is a big Great Dane.</b>
2707,NA,sunflower,Wed Dec 23 2020 17:39:02 GMT-0800 (Pacific Standard Time),NA,NA,37,warmup/dandelion2.png,sunflower,NA,This is a,NA,1,flowers,Margaret,NA,dandelion,NA,Please label the pictures below.,NA,NA,NA,NA,NA,NA,NA,warmup/sunflower2.png,flowers,NA,NA,NA,NA,NA,NA,flowers,NA,1,1,NA,This is a,0.74,These are both,dandelion,NA,NA,warmup2,NA,NA
2707,NA,clownfish,Wed Dec 23 2020 17:39:02 GMT-0800 (Pacific Standard Time),NA,NA,37,warmup/tuna2.png,clownfish,NA,This is a,NA,1,fish,Margaret,NA,tuna,NA,Please label the pictures below.,NA,NA,NA,NA,NA,NA,NA,warmup/clownfish2.png,fish,NA,NA,NA,NA,NA,NA,fish,NA,2,1,NA,This is a,0.74,These are both,tuna,NA,NA,warmup2,NA,NA
2707,What do you think your friend is saying it is small relative to?,NA,Wed Dec 23 2020 17:39:02 GMT-0800 (Pacific Standard Time),images/dandelion-landmark.png,images/flower-parade-basic-landmark.png,37,NA,NA,critical,NA,NA,1,flowers,Margaret,NA,NA,NA,Your friend goes ahead of you. You see your friend in the distance:,NA,subj,landmark,dandelion,NA,flowers,NA,NA,NA,NA,small,NA,NA,NA,10656,NA,You and your friend walk to a cabin you are renting for the weekend for the first time. You go along the path and you see the following:,1,NA,It is small relative to other,NA,0.74,NA,NA,NA,congruent,custom_main_text2,small,Your friend says: <br/><b>That small dandelion is a landmark.</b>
2707,What do you think your friend is saying it is big relative to?,NA,Wed Dec 23 2020 17:39:02 GMT-0800 (Pacific Standard Time),images/tuna_net.png,images/fish-parade-basic.png,37,NA,NA,critical,NA,NA,1,fish,Margaret,NA,NA,NA,Your friend goes ahead of you. You see your friend in the distance:,NA,subj,rescue,tuna,NA,clownfish,NA,NA,NA,NA,big,NA,NA,NA,9141,NA,You visit your friend who works as a marine biologist and you see the following:,2,NA,It is big relative to other,NA,0.74,NA,NA,NA,congruent,custom_main_text2,big,Your friend says: <br/><b>That big tuna is a rescue.</b>
2706,NA,pug,Wed Dec 23 2020 19:38:32 GMT-0600 (Central Standard Time),NA,NA,37,warmup/great-dane2.png,pug,NA,This is a,No,1,dogs2,linda,NA,great dane,yes,Please label the pictures below.,NA,NA,NA,NA,34,NA,Thanks for including me in your study.,warmup/pug2.png,dogs,some_college,NA,NA,english,male,NA,dogs,NA,1,1,NA,This is a,2,These are both,great dane,NA,NA,warmup1,NA,NA
2706,NA,hummingbird,Wed Dec 23 2020 19:38:32 GMT-0600 (Central Standard Time),NA,NA,37,warmup/eagle2.png,hummingbird,NA,This is a,No,1,birds,linda,NA,eagle,yes,Please label the pictures below.,NA,NA,NA,NA,34,NA,Thanks for including me in your study.,warmup/hummingbird2.png,birds,some_college,NA,NA,english,male,NA,birds,NA,2,1,NA,This is an,2,These are both,eagle,NA,NA,warmup1,NA,NA
2706,<i>What do you think Speaker A meant? </i>,NA,Wed Dec 23 2020 19:38:32 GMT-0600 (Central Standard Time),NA,NA,37,NA,NA,NA,NA,No,1,NA,linda,1,NA,yes,NA,"<b> Speaker A: ""The Empire State Building is tall.""</b>",NA,NA,NA,34,buildings,Thanks for including me in your study.,NA,NA,some_college,NA,comp_class_warmup,english,male,NA,NA,In the main trials you will be asked to rephrase something a person said. The utterance will contain a word that is <i>relative</i> and your task is to figure out what it is relative to. <br /> <br /> For example: <br />,1,1,The Empire State Building is tall relative to other,NA,2,NA,NA,"buildings, skyscrapers, houses, constructions (choose one)",NA,comp_class_warmup,NA,NA
2706,What do you think your friend is saying it is big relative to?,NA,Wed Dec 23 2020 19:38:32 GMT-0600 (Central Standard Time),images/great-dane.png,images/dog-parade-basic2.png,37,NA,NA,critical,NA,No,1,dogs2,linda,NA,NA,yes,Your friend goes ahead of you. You see your friend in the distance:,NA,pred,prize-winner,Great Dane,34,dogs,Thanks for including me in your study.,NA,NA,some_college,big,NA,english,male,14585,NA,You and your friend are at a pet show and you see the following:,1,NA,It is big relative to other,NA,2,NA,NA,NA,congruent,custom_main_text1,big,Your friend says: <br/><b>That prize-winner is a big Great Dane.</b>
2706,What do you think your friend is saying it is big relative to?,NA,Wed Dec 23 2020 19:38:32 GMT-0600 (Central Standard Time),images/eagle.png,images/bird-parade-basic.png,37,NA,NA,critical,NA,No,1,birds,linda,NA,NA,yes,Your friend goes ahead of you. You see your friend in the distance:,NA,subj,rescue,eagle,34,birds,Thanks for including me in your study.,NA,NA,some_college,big,NA,english,male,11383,NA,You visit your friend who works at an animal shelter and you see the following:,2,NA,It is big relative to other,NA,2,NA,NA,NA,congruent,custom_main_text1,big,Your friend says: <br/><b>That big eagle is a rescue.</b>
2706,NA,sunflower,Wed Dec 23 2020 19:38:32 GMT-0600 (Central Standard Time),NA,NA,37,warmup/dandelion2.png,sunflower,NA,This is a,No,1,flowers,linda,NA,dandelion,yes,Please label the pictures below.,NA,NA,NA,NA,34,NA,Thanks for including me in your study.,warmup/sunflower2.png,flowers,some_college,NA,NA,english,male,NA,flowers,NA,1,1,NA,This is a,2,These are both,dandelion,NA,NA,warmup2,NA,NA
2706,NA,doberman,Wed Dec 23 2020 19:38:32 GMT-0600 (Central Standard Time),NA,NA,37,warmup/chihuahua2.png,doberman,NA,This is a,No,1,dogs1,linda,NA,chihuahua,yes,Please label the pictures below.,NA,NA,NA,NA,34,NA,Thanks for including me in your study.,warmup/doberman2.png,dogs,some_college,NA,NA,english,male,NA,dogs,NA,2,1,NA,This is a,2,These are both,chihuahua,NA,NA,warmup2,NA,NA
2706,What do you think your friend is saying it is small relative to?,NA,Wed Dec 23 2020 19:38:32 GMT-0600 (Central Standard Time),images/chihuahua.png,images/dog-parade-basic.png,37,NA,NA,critical,NA,No,1,dogs1,linda,NA,NA,yes,Your friend goes ahead of you. You see your friend in the distance:,NA,subj,service-animal,chihuahua,34,dogs,Thanks for including me in your study.,NA,NA,some_college,small,NA,english,male,8289,NA,You and your friend are at an animal training ground and you see the following:,1,NA,It is small relative to other,NA,2,NA,NA,NA,congruent,custom_main_text2,small,Your friend says: <br/><b>That small chihuahua is a service-animal.</b>
2706,What do you think your friend is saying it is small relative to?,NA,Wed Dec 23 2020 19:38:32 GMT-0600 (Central Standard Time),images/dandelion.png,images/flower-parade-basic.png,37,NA,NA,critical,NA,No,1,flowers,linda,NA,NA,yes,Your friend goes ahead of you. You see your friend in the distance:,NA,pred,gift,dandelion,34,flowers,Thanks for including me in your study.,NA,NA,some_college,small,NA,english,male,6930,NA,You and your friend are at a garden store and you see the following:,2,NA,It is small relative to other,NA,2,NA,NA,NA,congruent,custom_main_text2,small,Your friend says: <br/><b>That gift is a small dandelion.</b>
2705,NA,Great Dane,Wed Dec 23 2020 19:30:23 GMT-0600 (Central Standard Time),NA,NA,37,warmup/pug2.png,great dane,NA,This is a,No,2,dogs2,linda,NA,pug,yes,Please label the pictures below.,NA,NA,NA,NA,23,NA,NA,warmup/great-dane2.png,dogs,higher_degree,NA,NA,English,male,NA,dogs,NA,1,1,NA,This is a,0.6,These are both,Pug,NA,NA,warmup1,NA,NA
2705,NA,bonsai,Wed Dec 23 2020 19:30:23 GMT-0600 (Central Standard Time),NA,NA,37,warmup/redwood2.png,bonsai,NA,This is a,No,2,trees,linda,NA,redwood or sequoia (choose one),yes,Please label the pictures below.,NA,NA,NA,NA,23,NA,NA,warmup/bonsai2.png,trees,higher_degree,NA,NA,English,male,NA,trees,NA,2,1,NA,This is a,0.6,These are both,redwood,NA,NA,warmup1,NA,NA
2705,<i>What do you think Speaker A meant? </i>,NA,Wed Dec 23 2020 19:30:23 GMT-0600 (Central Standard Time),NA,NA,37,NA,NA,NA,NA,No,2,NA,linda,1,NA,yes,NA,"<b> Speaker A: ""The Empire State Building is tall.""</b>",NA,NA,NA,23,buildings,NA,NA,NA,higher_degree,NA,comp_class_warmup,English,male,NA,NA,In the main trials you will be asked to rephrase something a person said. The utterance will contain a word that is <i>relative</i> and your task is to figure out what it is relative to. <br /> <br /> For example: <br />,1,1,The Empire State Building is tall relative to other,NA,0.6,NA,NA,"buildings, skyscrapers, houses, constructions (choose one)",NA,comp_class_warmup,NA,NA
2705,What do you think your friend is saying it is small relative to?,NA,Wed Dec 23 2020 19:30:23 GMT-0600 (Central Standard Time),images/pug.png,images/dog-parade-basic2.png,37,NA,NA,critical,NA,No,2,dogs2,linda,NA,NA,yes,Your friend goes ahead of you. You see your friend in the distance:,NA,pred,prize-winner,pug,23,dogs,NA,NA,NA,higher_degree,small,NA,English,male,37593,NA,You and your friend are at a pet show and you see the following:,1,NA,It is small relative to other,NA,0.6,NA,NA,NA,congruent,custom_main_text1,small,Your friend says: <br/><b>That prize-winner is a small pug.</b>
2705,What do you think your friend is saying it is big relative to?,NA,Wed Dec 23 2020 19:30:23 GMT-0600 (Central Standard Time),images/redwood_sign.png,images/tree-parade-basic.png,37,NA,NA,critical,NA,No,2,trees,linda,NA,NA,yes,Your friend goes ahead of you. You see your friend in the distance:,NA,subj,landmark,redwood,23,trees,NA,NA,NA,higher_degree,big,NA,English,male,26897,NA,You and your friend walk to your friend's cabin in a park for the first time. You want to memorize the path and you see the following:,2,NA,It is big relative to other,NA,0.6,NA,NA,NA,congruent,custom_main_text1,big,Your friend says: <br/><b>That big redwood is a landmark.</b>
2705,NA,chihuahua,Wed Dec 23 2020 19:30:23 GMT-0600 (Central Standard Time),NA,NA,37,warmup/doberman2.png,chihuahua,NA,This is a,No,2,dogs1,linda,NA,doberman,yes,Please label the pictures below.,NA,NA,NA,NA,23,NA,NA,warmup/chihuahua2.png,dogs,higher_degree,NA,NA,English,male,NA,dogs,NA,1,1,NA,This is a,0.6,These are both,doberman,NA,NA,warmup2,NA,NA
2705,NA,dandelion,Wed Dec 23 2020 19:30:23 GMT-0600 (Central Standard Time),NA,NA,37,warmup/sunflower2.png,dandelion,NA,This is a,No,2,flowers,linda,NA,sunflower,yes,Please label the pictures below.,NA,NA,NA,NA,23,NA,NA,warmup/dandelion2.png,plants,higher_degree,NA,NA,English,male,NA,flowers,NA,2,1,NA,This is a,0.6,These are both,sunflower,NA,NA,warmup2,NA,NA
2705,NA,dandelion,Wed Dec 23 2020 19:30:23 GMT-0600 (Central Standard Time),NA,NA,37,warmup/sunflower2.png,dandelion,NA,This is a,No,2,flowers,linda,NA,sunflower,yes,Please label the pictures below.,NA,NA,NA,NA,23,NA,NA,warmup/dandelion2.png,flowers,higher_degree,NA,NA,English,male,NA,flowers,NA,2,2,NA,This is a,0.6,These are both,sunflower,NA,NA,warmup2,NA,NA
2705,What do you think your friend is saying it is small relative to?,NA,Wed Dec 23 2020 19:30:23 GMT-0600 (Central Standard Time),images/dandelion.png,images/flower-parade-basic.png,37,NA,NA,critical,NA,No,2,flowers,linda,NA,NA,yes,Your friend goes ahead of you. You see your friend in the distance:,NA,subj,gift,dandelion,23,flowers,NA,NA,NA,higher_degree,small,NA,English,male,15987,NA,You and your friend are at a garden store and you see the following:,1,NA,It is small relative to other,NA,0.6,NA,NA,NA,congruent,custom_main_text2,small,Your friend says: <br/><b>That small dandelion is a gift.</b>
2705,What do you think your friend is saying it is big relative to?,NA,Wed Dec 23 2020 19:30:23 GMT-0600 (Central Standard Time),images/doberman.png,images/dog-parade-basic.png,37,NA,NA,critical,NA,No,2,dogs1,linda,NA,NA,yes,Your friend goes ahead of you. You see your friend in the distance:,NA,pred,service-animal,doberman,23,dogs,NA,NA,NA,higher_degree,big,NA,English,male,10322,NA,You and your friend are at an animal training ground and you see the following:,2,NA,It is big relative to other,NA,0.6,NA,NA,NA,congruent,custom_main_text2,big,Your friend says: <br/><b>That service-animal is a big doberman.</b>
2704,NA,tuna,Wed Dec 23 2020 20:31:41 GMT-0500 (Eastern Standard Time),NA,NA,37,warmup/clownfish2.png,tuna,NA,This is a,no,1,fish,linda,NA,clownfish,NA,Please label the pictures below.,NA,NA,NA,NA,19,NA,NA,warmup/tuna2.png,fish,some_college,NA,NA,English,female,NA,fish,NA,1,1,NA,This is a,0.5,These are both,clownfish,NA,NA,warmup1,NA,NA
2704,NA,redwood,Wed Dec 23 2020 20:31:41 GMT-0500 (Eastern Standard Time),NA,NA,37,warmup/bonsai2.png,redwood or sequoia (choose one),NA,This is a,no,1,trees,linda,NA,bonsai,NA,Please label the pictures below.,NA,NA,NA,NA,19,NA,NA,warmup/redwood2.png,trees,some_college,NA,NA,English,female,NA,trees,NA,2,1,NA,This is a,0.5,These are both,bonsai,NA,NA,warmup1,NA,NA
2704,<i>What do you think Speaker A meant? </i>,NA,Wed Dec 23 2020 20:31:41 GMT-0500 (Eastern Standard Time),NA,NA,37,NA,NA,NA,NA,no,1,NA,linda,1,NA,NA,NA,"<b> Speaker A: ""The Empire State Building is tall.""</b>",NA,NA,NA,19,buildings,NA,NA,NA,some_college,NA,comp_class_warmup,English,female,NA,NA,In the main trials you will be asked to rephrase something a person said. The utterance will contain a word that is <i>relative</i> and your task is to figure out what it is relative to. <br /> <br /> For example: <br />,1,1,The Empire State Building is tall relative to other,NA,0.5,NA,NA,"buildings, skyscrapers, houses, constructions (choose one)",NA,comp_class_warmup,NA,NA
2704,What do you think your friend is saying it is small relative to?,NA,Wed Dec 23 2020 20:31:41 GMT-0500 (Eastern Standard Time),images/bonsai_stick.png,images/tree-parade-basic.png,37,NA,NA,critical,NA,no,1,trees,linda,NA,NA,NA,Your friend goes ahead of you. You see your friend in the distance:,NA,subj,landmark,bonsai,19,bonsais,NA,NA,NA,some_college,small,NA,English,female,21442,NA,You and your friend walk to your friend's cabin in a park for the first time. You want to memorize the path and you see the following:,1,NA,It is small relative to other,NA,0.5,NA,NA,NA,congruent,custom_main_text1,small,Your friend says: <br/><b>That small bonsai is a landmark.</b>
2704,What do you think your friend is saying it is big relative to?,NA,Wed Dec 23 2020 20:31:41 GMT-0500 (Eastern Standard Time),images/tuna_net.png,images/fish-parade-basic.png,37,NA,NA,critical,NA,no,1,fish,linda,NA,NA,NA,Your friend goes ahead of you. You see your friend in the distance:,NA,pred,rescue,tuna,19,fish\nfish,NA,NA,NA,some_college,big,NA,English,female,42647,NA,You visit your friend who works as a marine biologist and you see the following:,2,NA,It is big relative to other,NA,0.5,NA,NA,NA,congruent,custom_main_text1,big,Your friend says: <br/><b>That rescue is a big tuna.</b>
2704,NA,pug,Wed Dec 23 2020 20:31:41 GMT-0500 (Eastern Standard Time),NA,NA,37,warmup/great-dane2.png,pug,NA,This is a,no,1,dogs2,linda,NA,great dane,NA,Please label the pictures below.,NA,NA,NA,NA,19,NA,NA,warmup/pug2.png,dogs,some_college,NA,NA,English,female,NA,dogs,NA,1,1,NA,This is a,0.5,These are both,great dane,NA,NA,warmup2,NA,NA
2704,NA,doberman,Wed Dec 23 2020 20:31:41 GMT-0500 (Eastern Standard Time),NA,NA,37,warmup/chihuahua2.png,doberman,NA,This is a,no,1,dogs1,linda,NA,chihuahua,NA,Please label the pictures below.,NA,NA,NA,NA,19,NA,NA,warmup/doberman2.png,dogs,some_college,NA,NA,English,female,NA,dogs,NA,2,1,NA,This is a,0.5,These are both,chiuaua,NA,NA,warmup2,NA,NA
2704,NA,doberman,Wed Dec 23 2020 20:31:41 GMT-0500 (Eastern Standard Time),NA,NA,37,warmup/chihuahua2.png,doberman,NA,This is a,no,1,dogs1,linda,NA,chihuahua,NA,Please label the pictures below.,NA,NA,NA,NA,19,NA,NA,warmup/doberman2.png,dogs,some_college,NA,NA,English,female,NA,dogs,NA,2,2,NA,This is a,0.5,These are both,chihuahua,NA,NA,warmup2,NA,NA
2704,What do you think your friend is saying it is big relative to?,NA,Wed Dec 23 2020 20:31:41 GMT-0500 (Eastern Standard Time),images/great-dane-gift.png,images/dog-parade-basic2-gift.png,37,NA,NA,critical,NA,no,1,dogs2,linda,NA,NA,NA,Your friend goes ahead of you. You see your friend in the distance:,NA,subj,gift,Great Dane,19,great dane,NA,NA,NA,some_college,big,NA,English,female,14149,NA,You and your friend are at a pet store and you see the following:,1,NA,It is big relative to other,NA,0.5,NA,NA,NA,congruent,custom_main_text2,big,Your friend says: <br/><b>That big Great Dane is a gift.</b>
2704,What do you think your friend is saying it is small relative to?,NA,Wed Dec 23 2020 20:31:41 GMT-0500 (Eastern Standard Time),images/chihuahua.png,images/dog-parade-basic.png,37,NA,NA,critical,NA,no,1,dogs1,linda,NA,NA,NA,Your friend goes ahead of you. You see your friend in the distance:,NA,pred,service-animal,chihuahua,19,service animals,NA,NA,NA,some_college,small,NA,English,female,83431,NA,You and your friend are at an animal training ground and you see the following:,2,NA,It is small relative to other,NA,0.5,NA,NA,NA,congruent,custom_main_text2,small,Your friend says: <br/><b>That service-animal is a small chihuahua.</b>
2703,NA,eagle,Wed Dec 23 2020 17:30:42 GMT-0800 (Pacific Standard Time),NA,NA,37,warmup/hummingbird2.png,eagle,NA,This is a,no,1,birds,jennifer,NA,hummingbird,yes,Please label the pictures below.,NA,NA,NA,NA,29,NA,n/a,warmup/eagle2.png,birds,graduated_college,NA,NA,english,male,NA,birds,NA,1,1,NA,This is an,1,These are both,hummingbird,NA,NA,warmup1,NA,NA
2703,NA,stripmall,Wed Dec 23 2020 17:30:42 GMT-0800 (Pacific Standard Time),NA,NA,37,warmup/skyscraper2.png,stripmall,NA,This is a,no,1,buildings,jennifer,NA,skyscraper,yes,Please label the pictures below.,NA,NA,NA,NA,29,NA,n/a,warmup/stripmall2.png,buildings,graduated_college,NA,NA,english,male,NA,buildings,NA,2,1,NA,This is a,1,These are both,skyscraper,NA,NA,warmup1,NA,NA
2703,<i>What do you think Speaker A meant? </i>,NA,Wed Dec 23 2020 17:30:42 GMT-0800 (Pacific Standard Time),NA,NA,37,NA,NA,NA,NA,no,1,NA,jennifer,1,NA,yes,NA,"<b> Speaker A: ""The Empire State Building is tall.""</b>",NA,NA,NA,29,buildings,n/a,NA,NA,graduated_college,NA,comp_class_warmup,english,male,NA,NA,In the main trials you will be asked to rephrase something a person said. The utterance will contain a word that is <i>relative</i> and your task is to figure out what it is relative to. <br /> <br /> For example: <br />,1,1,The Empire State Building is tall relative to other,NA,1,NA,NA,"buildings, skyscrapers, houses, constructions (choose one)",NA,comp_class_warmup,NA,NA
2703,What do you think your friend is saying it is small relative to?,NA,Wed Dec 23 2020 17:30:42 GMT-0800 (Pacific Standard Time),images/hummingbird.png,images/bird-parade-basic.png,37,NA,NA,critical,NA,no,1,birds,jennifer,NA,NA,yes,Your friend goes ahead of you. You see your friend in the distance:,NA,pred,rescue,hummingbird,29,birds,n/a,NA,NA,graduated_college,small,NA,english,male,22518,NA,You visit your friend who works at an animal shelter and you see the following:,1,NA,It is small relative to other,NA,1,NA,NA,NA,congruent,custom_main_text1,small,Your friend says: <br/><b>That rescue is a small hummingbird.</b>
2703,What do you think your friend is saying it is big relative to?,NA,Wed Dec 23 2020 17:30:42 GMT-0800 (Pacific Standard Time),images/skyscraper-landmark.png,images/buildings-parade-basic.png,37,NA,NA,critical,NA,no,1,buildings,jennifer,NA,NA,yes,Your friend goes ahead of you. You see your friend in the distance:,NA,subj,landmark,skyscraper,29,other buildings,n/a,NA,NA,graduated_college,big,NA,english,male,49632,NA,You visit your friend who lives in another city. You take a walk and you see the following:,2,NA,It is big relative to other,NA,1,NA,NA,NA,congruent,custom_main_text1,big,Your friend says: <br/><b>That big skyscraper is a landmark.</b>
